subjectNumber,Block,TrialNum,Database_Origin,Dist_morph,Target_Morph,Distractor_Percent,Dist_Pic_Num,Target_Pic_Num,Num_Distractors,Target_Loc_Num,Response,RespACC,RT,Click_X_Coord,Click_Y_Coord,Location_X,Location_Y
1,1,1, LFS, Masc, Fem,75,132,132,3,8,1,0,3.004,928,388,830,270
1,1,2, LFS, Fem, Masc,75,138,138,8,2,1,0,3.925,930,759,830,630
1,1,3, LFS, Masc, Fem,75,104,104,8,4,1,0,2.928,618,551,530,450
1,1,4, LFS, Fem, Masc,75,22,22,3,4,1,0,2.212,609,544,530,450
1,1,5, LFS, Fem, Masc,75,117,117,8,8,1,0,3.284,937,380,830,270
1,1,6, LFS, Fem, Masc,75,130,130,8,8,1,0,3.305,916,380,830,270
1,1,7, LFS, Masc, Fem,75,12,12,3,4,1,0,3.222,598,555,530,450
1,1,8, LFS, Fem, Masc,75,18,18,6,3,1,0,2.894,1234,726,1130,630
1,1,9, LFS, Masc, Fem,75,143,143,8,9,1,0,8.715,1240,377,1130,270
1,1,10, LFS, Fem, Masc,75,104,104,6,9,1,0,2.808,1221,349,1130,270
1,1,11, LFS, Masc, Fem,75,31,31,6,2,1,0,2.696,940,740,830,630
1,1,12, LFS, Masc, Fem,75,108,108,6,7,1,0,3.589,609,342,530,270
1,1,13, LFS, Fem, Masc,75,105,105,3,4,1,0,2.982,619,572,530,450
1,1,14, LFS, Fem, Masc,75,143,143,8,7,1,0,5.656,623,380,530,270
1,1,15, LFS, Masc, Fem,75,117,117,6,9,1,0,2.927,1245,393,1130,270
1,1,16, LFS, Fem, Masc,75,121,121,8,9,1,0,6.843,1244,386,1130,270
1,1,17, LFS, Masc, Fem,75,173,173,3,6,1,0,2.386,1239,559,1130,450
1,1,18, LFS, Masc, Fem,75,4,4,6,3,1,0,2.188,1287,715,1130,630
1,1,19, LFS, Masc, Fem,75,130,130,6,8,1,0,1.957,918,373,830,270
1,1,20, LFS, Fem, Masc,75,21,21,6,3,1,0,2.368,1260,731,1130,630
1,1,21, LFS, Masc, Fem,75,140,140,8,3,1,0,2.874,1247,738,1130,630
1,1,22, LFS, Masc, Fem,75,18,18,6,7,1,0,2.816,612,365,530,270
1,1,23, LFS, Fem, Masc,75,33,33,8,1,1,1,7.472,620,735,530,630
1,1,24, LFS, Fem, Masc,75,123,123,6,7,1,0,4.43,627,381,530,270
1,1,25, LFS, Masc, Fem,75,68,68,8,3,1,0,3.798,1225,728,1130,630
1,1,26, LFS, Masc, Fem,75,141,141,6,9,1,0,2.542,1216,377,1130,270
1,1,27, LFS, Fem, Masc,75,108,108,3,6,1,0,2.618,1236,561,1130,450
1,1,28, LFS, Fem, Masc,75,125,125,8,9,1,0,2.922,1252,370,1130,270
1,1,29, LFS, Fem, Masc,75,31,31,8,6,1,0,5.19,1216,539,1130,450
1,1,30, LFS, Fem, Masc,75,69,69,8,6,1,0,2.624,1232,551,1130,450
1,1,31, LFS, Masc, Fem,75,63,63,8,2,8,0,1.432,948,359,830,630
1,1,32, LFS, Fem, Masc,75,26,26,6,2,1,0,9.387,931,748,830,630
1,1,33, LFS, Fem, Masc,75,12,12,8,6,5,0,5.908,955,370,1130,450
1,1,34, LFS, Masc, Fem,75,69,69,3,4,1,0,2.774,619,534,530,450
1,1,35, LFS, Fem, Masc,75,68,68,3,6,1,0,3.64,1233,560,1130,450
1,1,36, LFS, Masc, Fem,75,29,29,8,7,1,0,2.616,609,376,530,270
1,1,37, LFS, Masc, Fem,75,105,105,8,2,1,0,5.68,935,729,830,630
1,1,38, LFS, Fem, Masc,75,4,4,8,4,1,0,3.013,614,547,530,450
1,1,39, LFS, Masc, Fem,75,103,103,8,4,1,0,5.365,644,553,530,450
1,1,40, LFS, Masc, Fem,75,41,41,8,3,1,0,5.351,1242,749,1130,630
1,1,41, LFS, Masc, Fem,75,92,92,8,9,1,0,3.77,1230,373,1130,270
1,1,42, LFS, Fem, Masc,75,41,41,3,6,1,0,2.388,1234,548,1130,450
1,1,43, LFS, Fem, Masc,75,132,132,6,8,1,0,2.998,926,375,830,270
1,1,44, LFS, Fem, Masc,75,63,63,6,2,1,0,1.879,940,749,830,630
1,1,45, LFS, Fem, Masc,75,131,131,3,4,3,0,12.853,939,369,530,450
1,1,46, LFS, Masc, Fem,75,128,128,3,6,1,0,1.81,1232,554,1130,450
1,1,47, LFS, Fem, Masc,75,141,141,6,9,1,0,4.283,1244,376,1130,270
1,1,48, LFS, Masc, Fem,75,22,22,8,6,1,0,6.416,1204,529,1130,450
1,1,49, LFS, Masc, Fem,75,125,125,8,3,1,0,3.473,1247,733,1130,630
1,1,50, LFS, Masc, Fem,75,101,101,6,1,1,1,2.575,624,720,530,630
1,1,51, LFS, Fem, Masc,75,103,103,3,4,2,0,4.369,928,365,530,450
1,1,52, LFS, Fem, Masc,75,173,173,6,7,1,0,5.21,619,388,530,270
1,1,53, LFS, Fem, Masc,75,172,172,3,4,1,0,5.819,618,551,530,450
1,1,54, LFS, Masc, Fem,75,138,138,6,2,1,0,3.875,953,702,830,630
1,1,55, LFS, Masc, Fem,75,172,172,3,8,1,0,4.865,922,400,830,270
1,1,56, LFS, Fem, Masc,75,92,92,3,6,1,0,2.375,1256,569,1130,450
1,1,57, LFS, Masc, Fem,75,131,131,3,6,2,0,2.802,920,362,1130,450
1,1,58, LFS, Masc, Fem,75,33,33,3,6,1,0,1.77,1241,557,1130,450
1,1,59, LFS, Fem, Masc,75,29,29,3,8,1,0,1.916,900,361,830,270
1,1,60, LFS, Masc, Fem,75,26,26,8,4,1,0,4.48,630,555,530,450
1,1,61, LFS, Masc, Fem,75,123,123,8,1,1,1,4.397,610,730,530,630
1,1,62, LFS, Masc, Fem,75,21,21,3,6,1,0,2.31,1260,545,1130,450
1,1,63, LFS, Masc, Fem,75,121,121,8,7,1,0,5.627,625,380,530,270
1,1,64, LFS, Masc, Fem,75,138,138,6,8,1,0,1.963,960,363,830,270
1,1,65, LFS, Fem, Masc,75,140,140,3,8,1,0,3.669,927,369,830,270
1,1,66, LFS, Masc, Fem,75,41,41,8,2,1,0,3.035,928,721,830,630
1,2,67, LFS, Fem, Masc,75,101,101,3,4,1,0,3.179,619,561,530,450
1,2,68, LFS, Fem, Masc,75,128,128,6,8,1,0,4.333,902,378,830,270
1,2,69, LFS, Fem, Masc,75,101,101,6,3,4,0,5.328,931,734,1130,630
1,2,70, LFS, Masc, Fem,75,69,69,3,8,1,0,1.642,955,346,830,270
1,2,71, LFS, Masc, Fem,75,131,131,6,9,1,0,3.242,1217,369,1130,270
1,2,72, LFS, Masc, Fem,75,63,63,6,1,1,1,3.113,594,731,530,630
1,2,73, LFS, Fem, Masc,75,130,130,3,4,1,0,1.637,637,547,530,450
1,2,74, LFS, Masc, Fem,75,26,26,3,6,1,0,1.605,1258,514,1130,450
1,2,75, LFS, Fem, Masc,75,12,12,6,7,1,0,2.709,635,389,530,270
1,2,76, LFS, Fem, Masc,75,33,33,6,3,1,0,9.442,1226,747,1130,630
1,2,77, LFS, Fem, Masc,75,117,117,8,1,1,1,6.889,606,742,530,630
1,2,78, LFS, Masc, Fem,75,108,108,3,6,1,0,1.615,1242,510,1130,450
1,2,79, LFS, Masc, Fem,75,105,105,6,8,1,0,2.879,932,341,830,270
1,2,80, LFS, Fem, Masc,75,131,131,8,8,1,0,3.349,931,372,830,270
1,2,81, LFS, Masc, Fem,75,172,172,6,1,1,1,4.472,650,722,530,630
1,2,82, LFS, Masc, Fem,75,68,68,3,4,1,0,1.862,598,574,530,450
1,2,83, LFS, Fem, Masc,75,26,26,6,2,1,0,2.477,935,742,830,630
1,2,84, LFS, Fem, Masc,75,103,103,8,2,1,0,8.939,933,738,830,630
1,2,85, LFS, Fem, Masc,75,29,29,6,2,1,0,4.542,944,710,830,630
1,2,86, LFS, Masc, Fem,75,173,173,8,1,1,1,2.954,611,717,530,630
1,2,87, LFS, Fem, Masc,75,173,173,6,9,1,0,2.485,1250,364,1130,270
1,2,88, LFS, Fem, Masc,75,132,132,8,3,1,0,5.602,1226,728,1130,630
1,2,89, LFS, Masc, Fem,75,132,132,8,6,1,0,8.251,1232,572,1130,450
1,2,90, LFS, Fem, Masc,75,4,4,3,6,1,0,3.466,1236,579,1130,450
1,2,91, LFS, Fem, Masc,75,121,121,3,4,1,0,4.296,615,549,530,450
1,2,92, LFS, Masc, Fem,75,33,33,6,9,1,0,2.157,1218,358,1130,270
1,2,93, LFS, Fem, Masc,75,128,128,6,7,1,0,5.551,618,380,530,270
1,2,94, LFS, Masc, Fem,75,101,101,3,6,1,0,2.658,1225,551,1130,450
1,2,95, LFS, Masc, Fem,75,29,29,6,8,1,0,8.825,931,372,830,270
1,2,96, LFS, Masc, Fem,75,18,18,3,4,1,0,1.817,641,570,530,450
1,2,97, LFS, Masc, Fem,75,4,4,3,6,1,0,1.345,1235,548,1130,450
1,2,98, LFS, Fem, Masc,75,22,22,8,7,1,0,1.98,609,362,530,270
1,2,99, LFS, Masc, Fem,75,130,130,6,1,1,1,1.894,606,727,530,630
1,2,100, LFS, Fem, Masc,75,21,21,3,6,1,0,1.947,1241,525,1130,450
1,2,101, LFS, Masc, Fem,75,104,104,3,4,1,0,1.566,628,553,530,450
1,2,102, LFS, Fem, Masc,75,68,68,8,7,1,0,2.448,644,355,530,270
1,2,103, LFS, Fem, Masc,75,125,125,6,8,1,0,2.575,946,400,830,270
1,2,104, LFS, Masc, Fem,75,141,141,6,2,1,0,5.969,925,708,830,630
1,2,105, LFS, Fem, Masc,75,41,41,8,3,1,0,6.179,1197,709,1130,630
1,2,106, LFS, Masc, Fem,75,21,21,6,2,1,0,2.677,925,729,830,630
1,2,107, LFS, Masc, Fem,75,22,22,8,7,1,0,1.915,616,337,530,270
1,2,108, LFS, Masc, Fem,75,103,103,8,4,1,0,2.535,639,550,530,450
1,2,109, LFS, Fem, Masc,75,105,105,6,9,1,0,16.85,1238,376,1130,270
1,2,110, LFS, Masc, Fem,75,125,125,8,7,1,0,7.145,640,384,530,270
1,2,111, LFS, Masc, Fem,75,143,143,6,9,1,0,8.541,1247,378,1130,270
1,2,112, LFS, Masc, Fem,75,92,92,8,2,1,0,2.992,917,751,830,630
1,2,113, LFS, Masc, Fem,75,123,123,6,3,1,0,5.602,1221,717,1130,630
1,2,114, LFS, Fem, Masc,75,172,172,3,8,1,0,1.803,921,348,830,270
1,2,115, LFS, Masc, Fem,75,121,121,6,2,1,0,4.899,941,769,830,630
1,2,116, LFS, Fem, Masc,75,141,141,3,6,1,0,2.944,1257,548,1130,450
1,2,117, LFS, Fem, Masc,75,104,104,3,4,1,0,2.572,600,585,530,450
1,2,118, LFS, Fem, Masc,75,31,31,6,2,1,0,4.118,918,709,830,630
1,2,119, LFS, Masc, Fem,75,117,117,8,3,1,0,5.65,1226,728,1130,630
1,2,120, LFS, Masc, Fem,75,128,128,3,8,1,0,4.16,908,371,830,270
1,2,121, LFS, Masc, Fem,75,31,31,6,1,1,1,3.371,615,718,530,630
1,2,122, LFS, Masc, Fem,75,140,140,3,8,1,0,2.206,936,377,830,270
1,2,123, LFS, Fem, Masc,75,69,69,8,2,1,0,2.358,948,730,830,630
1,2,124, LFS, Fem, Masc,75,138,138,8,6,1,0,6.217,1241,568,1130,450
1,2,125, LFS, Masc, Fem,75,12,12,6,7,1,0,3.513,627,355,530,270
1,2,126, LFS, Masc, Fem,75,132,132,8,9,1,0,2.309,1216,384,1130,270
1,2,127, LFS, Masc, Fem,75,18,18,6,2,1,0,1.666,936,721,830,630
1,2,128, LFS, Masc, Fem,75,123,123,3,6,1,0,1.648,1256,518,1130,450
1,2,129, LFS, Masc, Fem,75,173,173,3,4,3,0,1.703,908,358,530,450
1,2,130, LFS, Fem, Masc,75,108,108,6,2,1,0,4.09,914,746,830,630
1,2,131, LFS, Fem, Masc,75,63,63,8,4,1,0,2.799,654,559,530,450
1,2,132, LFS, Fem, Masc,75,92,92,8,4,1,0,4.304,624,544,530,450
1,3,133, LFS, Fem, Masc,75,18,18,3,4,1,0,2.031,643,558,530,450
1,3,134, LFS, Fem, Masc,75,143,143,3,6,3,0,4.702,961,371,1130,450
1,3,135, LFS, Masc, Fem,75,117,117,3,4,1,0,2.498,642,547,530,450
1,3,136, LFS, Fem, Masc,75,140,140,6,1,1,1,4.831,618,738,530,630
1,3,137, LFS, Masc, Fem,75,104,104,6,1,1,1,3.238,653,709,530,630
1,3,138, LFS, Fem, Masc,75,123,123,6,7,1,0,5.67,641,367,530,270
1,3,139, LFS, Masc, Fem,75,138,138,8,7,1,0,3.052,634,363,530,270
1,3,140, LFS, Fem, Masc,75,105,105,6,3,1,0,4.618,1242,749,1130,630
1,3,141, LFS, Fem, Masc,75,138,138,8,1,1,1,4.571,643,728,530,630
1,3,142, LFS, Fem, Masc,75,41,41,3,4,1,0,2.453,615,557,530,450
1,3,143, LFS, Masc, Fem,75,121,121,6,2,1,0,1.859,940,729,830,630
1,3,144, LFS, Fem, Masc,75,103,103,8,8,1,0,3.978,929,388,830,270
1,3,145, LFS, Masc, Fem,75,63,63,3,8,1,0,1.716,934,362,830,270
1,3,146, LFS, Masc, Fem,75,141,141,8,6,1,0,3.896,1285,565,1130,450
1,3,147, LFS, Masc, Fem,75,125,125,8,4,1,0,4.117,674,541,530,450
1,3,148, LFS, Masc, Fem,75,143,143,8,8,2,0,4.434,914,731,830,270
1,3,149, LFS, Masc, Fem,75,33,33,8,6,1,0,2.696,1214,550,1130,450
1,3,150, LFS, Fem, Masc,75,63,63,6,8,1,0,3.157,939,383,830,270
1,3,151, LFS, Fem, Masc,75,92,92,3,6,1,0,1.312,1264,568,1130,450
1,3,152, LFS, Masc, Fem,75,26,26,3,4,1,0,1.916,642,547,530,450
1,3,153, LFS, Fem, Masc,75,22,22,3,8,1,0,1.832,959,367,830,270
1,3,154, LFS, Masc, Fem,75,4,4,3,8,1,0,4.072,897,373,830,270
1,3,155, LFS, Masc, Fem,75,105,105,3,4,1,0,4.478,619,550,530,450
1,3,156, LFS, Fem, Masc,75,29,29,3,4,1,0,2.508,640,542,530,450
1,3,157, LFS, Masc, Fem,75,41,41,3,8,1,0,3.505,905,378,830,270
1,3,158, LFS, Masc, Fem,75,140,140,8,2,1,0,2.757,939,711,830,630
1,3,159, LFS, Fem, Masc,75,143,143,6,3,1,0,2.528,1257,731,1130,630
1,3,160, LFS, Masc, Fem,75,69,69,3,8,1,0,1.628,939,348,830,270
1,3,161, LFS, Masc, Fem,75,92,92,6,7,1,0,3.036,638,364,530,270
1,3,162, LFS, Masc, Fem,75,31,31,8,1,1,1,5.916,621,729,530,630
1,3,163, LFS, Fem, Masc,75,69,69,8,1,1,1,2.288,661,721,530,630
1,3,164, LFS, Masc, Fem,75,68,68,3,4,1,0,6.293,616,570,530,450
1,3,165, LFS, Masc, Fem,75,128,128,8,4,1,0,3.163,602,532,530,450
1,3,166, LFS, Masc, Fem,75,29,29,6,8,1,0,5.661,935,395,830,270
1,3,167, LFS, Masc, Fem,75,12,12,3,6,1,0,3.092,1237,567,1130,450
1,3,168, LFS, Fem, Masc,75,12,12,8,8,1,0,2.153,922,372,830,270
1,3,169, LFS, Fem, Masc,75,121,121,6,7,1,0,3.972,643,378,530,270
1,3,170, LFS, Fem, Masc,75,68,68,8,1,1,1,3.622,624,725,530,630
1,3,171, LFS, Fem, Masc,75,33,33,6,8,1,0,3.902,925,400,830,270
1,3,172, LFS, Masc, Fem,75,131,131,3,8,1,0,2.395,908,378,830,270
1,3,173, LFS, Fem, Masc,75,125,125,6,8,1,0,4.58,910,377,830,270
1,3,174, LFS, Fem, Masc,75,132,132,3,6,1,0,1.942,1206,542,1130,450
1,3,175, LFS, Fem, Masc,75,21,21,8,6,1,0,4.001,1214,554,1130,450
1,3,176, LFS, Fem, Masc,75,26,26,3,4,1,0,2.29,651,559,530,450
1,3,177, LFS, Fem, Masc,75,108,108,6,7,1,0,3.639,662,365,530,270
1,3,178, LFS, Fem, Masc,75,131,131,8,1,1,1,4.151,632,749,530,630
1,3,179, LFS, Fem, Masc,75,31,31,8,6,1,0,3.346,1212,520,1130,450
1,3,180, LFS, Masc, Fem,75,172,172,8,9,1,0,10.661,1215,387,1130,270
1,3,181, LFS, Fem, Masc,75,18,18,3,4,1,0,1.788,634,536,530,450
1,3,182, LFS, Fem, Masc,75,123,123,3,6,1,0,1.381,1245,538,1130,450
1,3,183, LFS, Fem, Masc,75,172,172,3,6,1,0,1.678,1225,550,1130,450
1,3,184, LFS, Fem, Masc,75,117,117,6,8,1,0,1.779,913,371,830,270
1,3,185, LFS, Fem, Masc,75,130,130,8,7,1,0,1.885,596,374,530,270
1,3,186, LFS, Fem, Masc,75,128,128,3,4,1,0,1.498,632,570,530,450
1,3,187, LFS, Masc, Fem,75,108,108,6,2,1,0,2.343,916,722,830,630
1,3,188, LFS, Fem, Masc,75,141,141,6,9,1,0,2.994,1256,388,1130,270
1,3,189, LFS, Fem, Masc,75,140,140,8,3,1,0,3.731,1269,728,1130,630
1,3,190, LFS, Fem, Masc,75,104,104,3,8,1,0,3.175,938,365,830,270
1,3,191, LFS, Masc, Fem,75,103,103,6,9,1,0,3.225,1229,390,1130,270
1,3,192, LFS, Masc, Fem,75,21,21,3,6,1,0,1.441,1232,559,1130,450
1,3,193, LFS, Masc, Fem,75,101,101,6,2,1,0,1.753,949,708,830,630
1,3,194, LFS, Fem, Masc,75,4,4,3,8,1,0,1.907,927,363,830,270
1,3,195, LFS, Masc, Fem,75,130,130,6,2,1,0,3.768,929,748,830,630
1,3,196, LFS, Masc, Fem,75,22,22,3,8,1,0,1.666,913,352,830,270
1,3,197, LFS, Fem, Masc,75,173,173,6,9,1,0,2.88,1203,383,1130,270
1,3,198, LFS, Fem, Masc,75,101,101,8,3,1,0,6.958,1240,772,1130,630
2,1,1, LFS, Fem, Masc,75,22,22,8,9,1,0,2.991,1255,304,1130,270
2,1,2, LFS, Fem, Masc,75,130,130,3,4,1,0,2.025,627,587,530,450
2,1,3, LFS, Masc, Fem,75,125,125,3,8,1,0,1.92,925,383,830,270
2,1,4, LFS, Masc, Fem,75,108,108,3,6,1,0,1.524,1204,555,1130,450
2,1,5, LFS, Masc, Fem,75,131,131,3,8,1,0,2.056,964,421,830,270
2,1,6, LFS, Masc, Fem,75,117,117,8,4,1,0,1.751,600,569,530,450
2,1,7, LFS, Masc, Fem,75,104,104,8,4,1,0,1.978,618,545,530,450
2,1,8, LFS, Masc, Fem,75,140,140,6,7,1,0,1.932,638,371,530,270
2,1,9, LFS, Masc, Fem,75,130,130,6,8,1,0,2.231,920,393,830,270
2,1,10, LFS, Fem, Masc,75,92,92,6,2,1,0,5.606,929,735,830,630
2,1,11, LFS, Masc, Fem,75,101,101,8,4,1,0,2.135,662,560,530,450
2,1,12, LFS, Masc, Fem,75,29,29,3,8,1,0,1.531,952,379,830,270
2,1,13, LFS, Fem, Masc,75,41,41,8,8,1,0,1.686,921,388,830,270
2,1,14, LFS, Fem, Masc,75,128,128,6,9,1,0,1.684,1202,389,1130,270
2,1,15, LFS, Masc, Fem,75,69,69,8,4,1,0,1.785,658,544,530,450
2,1,16, LFS, Fem, Masc,75,4,4,6,3,1,0,2.442,1228,724,1130,630
2,1,17, LFS, Masc, Fem,75,31,31,3,8,1,0,1.682,953,368,830,270
2,1,18, LFS, Fem, Masc,75,105,105,3,8,1,0,1.599,915,358,830,270
2,1,19, LFS, Masc, Fem,75,141,141,8,3,1,0,2.208,1250,712,1130,630
2,1,20, LFS, Fem, Masc,75,104,104,8,3,1,0,2.057,1237,703,1130,630
2,1,21, LFS, Masc, Fem,75,41,41,3,4,3,0,2.519,1216,579,530,450
2,1,22, LFS, Fem, Masc,75,21,21,6,2,1,0,1.906,968,698,830,630
2,1,23, LFS, Masc, Fem,75,138,138,3,4,1,0,1.415,657,560,530,450
2,1,24, LFS, Fem, Masc,75,101,101,6,8,1,0,4.903,955,399,830,270
2,1,25, LFS, Fem, Masc,75,18,18,6,1,1,1,1.731,601,755,530,630
2,1,26, LFS, Fem, Masc,75,12,12,3,8,1,0,1.887,951,352,830,270
2,1,27, LFS, Masc, Fem,75,18,18,6,3,1,0,2.412,1264,743,1130,630
2,1,28, LFS, Fem, Masc,75,173,173,3,8,3,0,1.269,626,564,830,270
2,1,29, LFS, Fem, Masc,75,108,108,8,7,1,0,2.594,656,393,530,270
2,1,30, LFS, Masc, Fem,75,12,12,8,2,1,0,2.691,928,768,830,630
2,1,31, LFS, Masc, Fem,75,4,4,6,3,1,0,1.912,1229,709,1130,630
2,1,32, LFS, Masc, Fem,75,22,22,6,2,1,0,1.637,895,727,830,630
2,1,33, LFS, Masc, Fem,75,33,33,6,2,1,0,1.557,943,706,830,630
2,1,34, LFS, Fem, Masc,75,143,143,6,2,1,0,1.735,999,694,830,630
2,1,35, LFS, Masc, Fem,75,128,128,3,6,1,0,2.459,1264,535,1130,450
2,1,36, LFS, Masc, Fem,75,123,123,6,9,1,0,5.682,1231,379,1130,270
2,1,37, LFS, Masc, Fem,75,26,26,3,6,1,0,1.399,1225,565,1130,450
2,1,38, LFS, Masc, Fem,75,173,173,6,8,1,0,1.48,931,361,830,270
2,1,39, LFS, Fem, Masc,75,33,33,3,4,2,0,1.597,950,384,530,450
2,1,40, LFS, Masc, Fem,75,92,92,8,8,1,0,1.469,935,408,830,270
2,1,41, LFS, Masc, Fem,75,63,63,3,8,1,0,1.691,927,346,830,270
2,1,42, LFS, Masc, Fem,75,68,68,8,2,1,0,1.921,939,714,830,630
2,1,43, LFS, Fem, Masc,75,26,26,8,3,1,0,4.533,1238,738,1130,630
2,1,44, LFS, Fem, Masc,75,131,131,3,4,1,0,2.272,558,555,530,450
2,1,45, LFS, Fem, Masc,75,63,63,3,8,1,0,2.254,951,374,830,270
2,1,46, LFS, Masc, Fem,75,121,121,3,4,1,0,1.685,674,554,530,450
2,1,47, LFS, Fem, Masc,75,121,121,3,4,1,0,1.866,600,576,530,450
2,1,48, LFS, Fem, Masc,75,68,68,3,8,1,0,1.809,950,357,830,270
2,1,49, LFS, Fem, Masc,75,132,132,8,6,1,0,1.449,1244,545,1130,450
2,1,50, LFS, Masc, Fem,75,172,172,6,8,1,0,4.576,952,386,830,270
2,1,51, LFS, Fem, Masc,75,123,123,6,8,1,0,3.786,927,377,830,270
2,1,52, LFS, Masc, Fem,75,105,105,6,7,1,0,1.771,636,408,530,270
2,1,53, LFS, Masc, Fem,75,21,21,6,3,1,0,1.75,1239,737,1130,630
2,1,54, LFS, Masc, Fem,75,103,103,3,6,1,0,2.32,1242,568,1130,450
2,1,55, LFS, Masc, Fem,75,143,143,6,8,1,0,2.14,946,346,830,270
2,1,56, LFS, Fem, Masc,75,31,31,3,6,1,0,1.6,1266,550,1130,450
2,1,57, LFS, Fem, Masc,75,172,172,6,7,1,0,3.705,640,368,530,270
2,1,58, LFS, Masc, Fem,75,132,132,3,8,1,0,1.677,955,378,830,270
2,1,59, LFS, Masc, Fem,75,132,132,6,7,1,0,3.371,586,389,530,270
2,1,60, LFS, Masc, Fem,75,123,123,3,8,1,0,1.389,938,405,830,270
2,1,61, LFS, Fem, Masc,75,125,125,3,8,1,0,1.471,940,371,830,270
2,1,62, LFS, Masc, Fem,75,69,69,3,8,1,0,1.453,926,378,830,270
2,1,63, LFS, Fem, Masc,75,103,103,6,8,1,0,1.588,922,377,830,270
2,1,64, LFS, Fem, Masc,75,117,117,8,9,1,0,1.653,1235,388,1130,270
2,1,65, LFS, Fem, Masc,75,69,69,3,8,1,0,1.54,914,408,830,270
2,1,66, LFS, Fem, Masc,75,138,138,6,3,1,0,2.607,1266,741,1130,630
2,2,67, LFS, Fem, Masc,75,29,29,8,1,1,1,2.194,635,741,530,630
2,2,68, LFS, Fem, Masc,75,141,141,8,3,1,0,1.979,1257,730,1130,630
2,2,69, LFS, Masc, Fem,75,68,68,3,4,1,0,1.493,605,573,530,450
2,2,70, LFS, Fem, Masc,75,140,140,8,3,1,0,2.434,1204,735,1130,630
2,2,71, LFS, Masc, Fem,75,128,128,8,4,1,0,2.137,675,544,530,450
2,2,72, LFS, Masc, Fem,75,92,92,6,1,1,1,1.741,606,740,530,630
2,2,73, LFS, Fem, Masc,75,117,117,8,6,1,0,1.729,1201,562,1130,450
2,2,74, LFS, Fem, Masc,75,22,22,6,9,1,0,1.364,1272,368,1130,270
2,2,75, LFS, Fem, Masc,75,132,132,6,8,1,0,2.031,916,361,830,270
2,2,76, LFS, Fem, Masc,75,4,4,3,4,1,0,1.83,647,549,530,450
2,2,77, LFS, Masc, Fem,75,117,117,8,9,1,0,1.477,1226,367,1130,270
2,2,78, LFS, Fem, Masc,75,173,173,6,1,1,1,2.131,656,693,530,630
2,2,79, LFS, Fem, Masc,75,12,12,8,1,1,1,2.303,657,717,530,630
2,2,80, LFS, Fem, Masc,75,108,108,8,1,1,1,3.492,635,730,530,630
2,2,81, LFS, Fem, Masc,75,128,128,6,8,1,0,1.889,932,374,830,270
2,2,82, LFS, Masc, Fem,75,31,31,3,8,1,0,1.494,938,369,830,270
2,2,83, LFS, Masc, Fem,75,21,21,8,1,1,1,1.692,626,713,530,630
2,2,84, LFS, Masc, Fem,75,108,108,6,9,1,0,2.321,1189,407,1130,270
2,2,85, LFS, Fem, Masc,75,123,123,3,8,1,0,1.677,940,374,830,270
2,2,86, LFS, Masc, Fem,75,26,26,3,8,1,0,1.603,970,348,830,270
2,2,87, LFS, Masc, Fem,75,173,173,6,3,1,0,1.756,1197,718,1130,630
2,2,88, LFS, Masc, Fem,75,138,138,3,8,1,0,1.319,953,381,830,270
2,2,89, LFS, Masc, Fem,75,22,22,6,9,1,0,1.715,1241,370,1130,270
2,2,90, LFS, Fem, Masc,75,21,21,8,8,1,0,2.743,976,384,830,270
2,2,91, LFS, Masc, Fem,75,131,131,8,1,1,1,2.322,644,750,530,630
2,2,92, LFS, Fem, Masc,75,104,104,3,4,1,0,4.982,640,558,530,450
2,2,93, LFS, Fem, Masc,75,18,18,8,9,1,0,1.92,1248,369,1130,270
2,2,94, LFS, Fem, Masc,75,131,131,8,7,1,0,1.804,607,385,530,270
2,2,95, LFS, Fem, Masc,75,125,125,8,4,1,0,2.196,654,550,530,450
2,2,96, LFS, Masc, Fem,75,172,172,3,8,1,0,3.981,941,350,830,270
2,2,97, LFS, Fem, Masc,75,105,105,3,6,1,0,1.998,1197,559,1130,450
2,2,98, LFS, Fem, Masc,75,101,101,8,3,1,0,3.039,1232,734,1130,630
2,2,99, LFS, Fem, Masc,75,26,26,8,7,1,0,3.839,644,384,530,270
2,2,100, LFS, Masc, Fem,75,101,101,3,4,1,0,1.942,645,565,530,450
2,2,101, LFS, Masc, Fem,75,18,18,8,9,1,0,3.249,1245,393,1130,270
2,2,102, LFS, Fem, Masc,75,31,31,8,3,1,0,2.32,1249,736,1130,630
2,2,103, LFS, Fem, Masc,75,69,69,6,2,1,0,2.236,915,744,830,630
2,2,104, LFS, Masc, Fem,75,143,143,6,7,1,0,4.084,569,371,530,270
2,2,105, LFS, Masc, Fem,75,130,130,6,7,1,0,1.881,615,398,530,270
2,2,106, LFS, Masc, Fem,75,41,41,8,2,1,0,1.847,946,713,830,630
2,2,107, LFS, Masc, Fem,75,33,33,6,3,1,0,2.141,1215,747,1130,630
2,2,108, LFS, Fem, Masc,75,121,121,6,7,1,0,4.249,613,392,530,270
2,2,109, LFS, Fem, Masc,75,29,29,6,2,1,0,1.911,922,761,830,630
2,2,110, LFS, Masc, Fem,75,4,4,6,3,1,0,1.708,1238,737,1130,630
2,2,111, LFS, Masc, Fem,75,125,125,8,6,1,0,1.793,1236,553,1130,450
2,2,112, LFS, Masc, Fem,75,140,140,8,2,1,0,2.355,959,725,830,630
2,2,113, LFS, Fem, Masc,75,130,130,8,4,1,0,1.541,581,559,530,450
2,2,114, LFS, Fem, Masc,75,143,143,3,4,1,0,3.512,636,547,530,450
2,2,115, LFS, Fem, Masc,75,41,41,3,6,1,0,1.3,1273,560,1130,450
2,2,116, LFS, Fem, Masc,75,140,140,3,6,1,0,1.377,1259,550,1130,450
2,2,117, LFS, Fem, Masc,75,103,103,6,3,1,0,3.907,1223,730,1130,630
2,2,118, LFS, Masc, Fem,75,121,121,8,7,1,0,1.608,611,377,530,270
2,2,119, LFS, Masc, Fem,75,105,105,8,1,1,1,4.649,648,715,530,630
2,2,120, LFS, Fem, Masc,75,63,63,6,7,1,0,2.6,640,371,530,270
2,2,121, LFS, Masc, Fem,75,141,141,8,6,1,0,6.464,1229,562,1130,450
2,2,122, LFS, Fem, Masc,75,33,33,8,2,1,0,2.199,897,748,830,630
2,2,123, LFS, Fem, Masc,75,138,138,3,6,1,0,1.855,1198,557,1130,450
2,2,124, LFS, Masc, Fem,75,104,104,3,8,1,0,1.678,958,405,830,270
2,2,125, LFS, Masc, Fem,75,12,12,3,6,1,0,1.612,1213,558,1130,450
2,2,126, LFS, Masc, Fem,75,29,29,6,8,1,0,3.325,946,371,830,270
2,2,127, LFS, Masc, Fem,75,103,103,6,8,1,0,2.121,948,418,830,270
2,2,128, LFS, Fem, Masc,75,68,68,3,6,1,0,1.549,1197,567,1130,450
2,2,129, LFS, Masc, Fem,75,63,63,6,1,1,1,2.088,638,730,530,630
2,2,130, LFS, Masc, Fem,75,140,140,6,7,1,0,3.021,649,404,530,270
2,2,131, LFS, Fem, Masc,75,141,141,3,6,1,0,2.237,1251,566,1130,450
2,2,132, LFS, Fem, Masc,75,172,172,3,6,1,0,1.421,1243,554,1130,450
2,3,133, LFS, Fem, Masc,75,92,92,6,1,1,1,1.776,626,754,530,630
2,3,134, LFS, Masc, Fem,75,4,4,8,1,1,1,2.578,624,756,530,630
2,3,135, LFS, Fem, Masc,75,125,125,3,6,1,0,1.652,1248,558,1130,450
2,3,136, LFS, Masc, Fem,75,18,18,8,6,1,0,2.131,1222,534,1130,450
2,3,137, LFS, Fem, Masc,75,4,4,3,4,1,0,2.311,682,562,530,450
2,3,138, LFS, Fem, Masc,75,68,68,8,9,1,0,1.555,1229,403,1130,270
2,3,139, LFS, Masc, Fem,75,141,141,8,2,1,0,1.494,931,700,830,630
2,3,140, LFS, Fem, Masc,75,128,128,8,1,1,1,3.235,624,735,530,630
2,3,141, LFS, Masc, Fem,75,132,132,6,3,1,0,2.483,1221,735,1130,630
2,3,142, LFS, Masc, Fem,75,26,26,6,1,1,1,3.576,615,726,530,630
2,3,143, LFS, Masc, Fem,75,117,117,3,6,1,0,1.706,1226,530,1130,450
2,3,144, LFS, Fem, Masc,75,143,143,6,3,1,0,2.751,1234,719,1130,630
2,3,145, LFS, Masc, Fem,75,12,12,3,4,1,0,3.178,632,564,530,450
2,3,146, LFS, Masc, Fem,75,63,63,3,4,1,0,2.652,599,575,530,450
2,3,147, LFS, Masc, Fem,75,41,41,6,7,1,0,3.747,623,393,530,270
2,3,148, LFS, Masc, Fem,75,69,69,8,1,1,1,3.141,638,735,530,630
2,3,149, LFS, Fem, Masc,75,141,141,3,6,1,0,2.001,1267,553,1130,450
2,3,150, LFS, Masc, Fem,75,92,92,8,3,1,0,3.601,1232,744,1130,630
2,3,151, LFS, Fem, Masc,75,41,41,8,9,1,0,1.994,1211,387,1130,270
2,3,152, LFS, Masc, Fem,75,121,121,3,6,1,0,1.572,1217,562,1130,450
2,3,153, LFS, Fem, Masc,75,103,103,3,4,1,0,2.51,616,574,530,450
2,3,154, LFS, Fem, Masc,75,138,138,8,6,1,0,2.618,1216,564,1130,450
2,3,155, LFS, Masc, Fem,75,131,131,3,8,1,0,1.859,936,375,830,270
2,3,156, LFS, Fem, Masc,75,140,140,6,7,1,0,2.345,648,406,530,270
2,3,157, LFS, Fem, Masc,75,101,101,6,7,1,0,5.164,624,381,530,270
2,3,158, LFS, Masc, Fem,75,105,105,3,8,1,0,3.943,935,386,830,270
2,3,159, LFS, Masc, Fem,75,103,103,8,1,1,1,2.57,684,725,530,630
2,3,160, LFS, Fem, Masc,75,108,108,3,4,1,0,2.356,626,568,530,450
2,3,161, LFS, Fem, Masc,75,29,29,8,2,1,0,5.167,936,731,830,630
2,3,162, LFS, Fem, Masc,75,63,63,6,8,1,0,2.321,920,383,830,270
2,3,163, LFS, Masc, Fem,75,68,68,8,8,1,0,2.397,930,380,830,270
2,3,164, LFS, Fem, Masc,75,31,31,8,9,1,0,2.054,1266,365,1130,270
2,3,165, LFS, Masc, Fem,75,172,172,3,4,1,0,2.349,640,544,530,450
2,3,166, LFS, Fem, Masc,75,12,12,8,4,1,0,2.455,628,570,530,450
2,3,167, LFS, Fem, Masc,75,130,130,8,4,1,0,3.11,641,550,530,450
2,3,168, LFS, Fem, Masc,75,172,172,6,3,1,0,2.099,1196,720,1130,630
2,3,169, LFS, Fem, Masc,75,18,18,3,4,1,0,1.992,615,557,530,450
2,3,170, LFS, Masc, Fem,75,29,29,3,4,1,0,4.033,636,567,530,450
2,3,171, LFS, Fem, Masc,75,105,105,6,3,1,0,2.521,1257,735,1130,630
2,3,172, LFS, Masc, Fem,75,138,138,6,2,1,0,1.724,947,701,830,630
2,3,173, LFS, Masc, Fem,75,101,101,6,7,1,0,4.225,644,382,530,270
2,3,174, LFS, Fem, Masc,75,33,33,8,8,1,0,2.489,959,384,830,270
2,3,175, LFS, Masc, Fem,75,31,31,8,6,1,0,3.878,1241,537,1130,450
2,3,176, LFS, Fem, Masc,75,131,131,6,7,1,0,4.364,633,387,530,270
2,3,177, LFS, Masc, Fem,75,143,143,6,3,1,0,3.174,1247,745,1130,630
2,3,178, LFS, Fem, Masc,75,121,121,8,3,1,0,2.624,1262,727,1130,630
2,3,179, LFS, Fem, Masc,75,26,26,8,7,1,0,4.248,670,412,530,270
2,3,180, LFS, Fem, Masc,75,123,123,3,8,1,0,2.703,939,408,830,270
2,3,181, LFS, Fem, Masc,75,104,104,6,2,1,0,2.851,940,728,830,630
2,3,182, LFS, Masc, Fem,75,33,33,8,2,1,0,2.338,927,733,830,630
2,3,183, LFS, Masc, Fem,75,128,128,8,3,1,0,2.502,1240,741,1130,630
2,3,184, LFS, Masc, Fem,75,104,104,8,4,1,0,2.21,636,554,530,450
2,3,185, LFS, Masc, Fem,75,22,22,6,8,1,0,2.603,929,401,830,270
2,3,186, LFS, Masc, Fem,75,21,21,8,6,1,0,2.1,1236,539,1130,450
2,3,187, LFS, Fem, Masc,75,22,22,6,2,1,0,2.017,946,733,830,630
2,3,188, LFS, Masc, Fem,75,125,125,8,3,1,0,2.28,1244,722,1130,630
2,3,189, LFS, Fem, Masc,75,21,21,3,8,1,0,1.518,954,373,830,270
2,3,190, LFS, Masc, Fem,75,123,123,8,7,1,0,2.266,622,349,530,270
2,3,191, LFS, Fem, Masc,75,69,69,6,9,1,0,2.008,1211,377,1130,270
2,3,192, LFS, Fem, Masc,75,117,117,3,8,1,0,1.417,927,401,830,270
2,3,193, LFS, Masc, Fem,75,108,108,3,4,1,0,1.993,644,534,530,450
2,3,194, LFS, Fem, Masc,75,92,92,6,8,1,0,1.818,924,397,830,270
2,3,195, LFS, Fem, Masc,75,132,132,6,1,1,1,4.362,662,724,530,630
2,3,196, LFS, Masc, Fem,75,173,173,6,2,1,0,1.389,954,732,830,630
2,3,197, LFS, Fem, Masc,75,173,173,3,6,1,0,1.535,1201,553,1130,450
2,3,198, LFS, Masc, Fem,75,130,130,3,8,1,0,1.258,898,397,830,270
3,1,1, LFS, Fem, Masc,75,108,108,6,3,1,0,3.815,1233,759,1130,630
3,1,2, LFS, Fem, Masc,75,138,138,6,8,1,0,2.295,971,371,830,270
3,1,3, LFS, Masc, Fem,75,173,173,8,4,1,0,3.667,666,522,530,450
3,1,4, LFS, Masc, Fem,75,121,121,6,3,1,0,1.721,1265,796,1130,630
3,1,5, LFS, Fem, Masc,75,18,18,3,8,1,0,2.02,930,423,830,270
3,1,6, LFS, Masc, Fem,75,123,123,8,9,1,0,2.685,1223,347,1130,270
3,1,7, LFS, Masc, Fem,75,21,21,3,8,1,0,1.834,938,375,830,270
3,1,8, LFS, Fem, Masc,75,41,41,6,7,1,0,2.217,664,397,530,270
3,1,9, LFS, Masc, Fem,75,117,117,3,4,1,0,2.665,632,562,530,450
3,1,10, LFS, Fem, Masc,75,101,101,3,4,3,0,5.663,902,360,530,450
3,1,11, LFS, Fem, Masc,75,26,26,3,6,1,0,4.66,1232,543,1130,450
3,1,12, LFS, Fem, Masc,75,104,104,3,6,1,0,2.13,1243,549,1130,450
3,1,13, LFS, Fem, Masc,75,103,103,8,9,1,0,5.366,1252,366,1130,270
3,1,14, LFS, Masc, Fem,75,63,63,6,7,1,0,1.752,611,392,530,270
3,1,15, LFS, Fem, Masc,75,105,105,6,8,1,0,4.522,976,399,830,270
3,1,16, LFS, Fem, Masc,75,130,130,8,2,1,0,1.919,935,755,830,630
3,1,17, LFS, Fem, Masc,75,4,4,3,4,1,0,2.179,590,559,530,450
3,1,18, LFS, Fem, Masc,75,69,69,3,6,1,0,3.861,1206,531,1130,450
3,1,19, LFS, Masc, Fem,75,31,31,3,8,1,0,3.267,943,376,830,270
3,1,20, LFS, Masc, Fem,75,138,138,6,9,1,0,4.682,1250,352,1130,270
3,1,21, LFS, Masc, Fem,75,33,33,8,1,1,1,5.463,624,738,530,630
3,1,22, LFS, Masc, Fem,75,143,143,3,8,1,0,3.901,902,341,830,270
3,1,23, LFS, Masc, Fem,75,68,68,3,4,1,0,2.826,603,570,530,450
3,1,24, LFS, Fem, Masc,75,22,22,6,9,1,0,1.97,1239,364,1130,270
3,1,25, LFS, Fem, Masc,75,63,63,8,6,1,0,5.748,1208,521,1130,450
3,1,26, LFS, Fem, Masc,75,117,117,8,8,1,0,2.711,901,367,830,270
3,1,27, LFS, Masc, Fem,75,141,141,8,9,1,0,2.716,1227,305,1130,270
3,1,28, LFS, Masc, Fem,75,108,108,6,2,1,0,2.48,950,762,830,630
3,1,29, LFS, Masc, Fem,75,92,92,6,1,1,1,1.997,607,740,530,630
3,1,30, LFS, Masc, Fem,75,101,101,3,4,1,0,2.334,633,543,530,450
3,1,31, LFS, Fem, Masc,75,12,12,6,3,1,0,2.753,1269,757,1130,630
3,1,32, LFS, Masc, Fem,75,22,22,8,6,1,0,4.22,1234,570,1130,450
3,1,33, LFS, Fem, Masc,75,31,31,3,6,1,0,1.684,1221,547,1130,450
3,1,34, LFS, Fem, Masc,75,29,29,6,9,1,0,2.146,1204,363,1130,270
3,1,35, LFS, Masc, Fem,75,104,104,8,8,1,0,5.925,929,368,830,270
3,1,36, LFS, Fem, Masc,75,33,33,3,4,1,0,2.208,636,564,530,450
3,1,37, LFS, Masc, Fem,75,18,18,8,8,1,0,2.721,957,386,830,270
3,1,38, LFS, Fem, Masc,75,121,121,8,3,1,0,3.581,1217,755,1130,630
3,1,39, LFS, Masc, Fem,75,4,4,6,9,1,0,3.215,1217,424,1130,270
3,1,40, LFS, Masc, Fem,75,131,131,3,8,1,0,6.319,946,378,830,270
3,1,41, LFS, Masc, Fem,75,26,26,3,6,1,0,7.155,1252,544,1130,450
3,1,42, LFS, Masc, Fem,75,103,103,6,3,1,0,2.718,1231,755,1130,630
3,1,43, LFS, Fem, Masc,75,92,92,8,9,1,0,7.442,1245,391,1130,270
3,1,44, LFS, Masc, Fem,75,128,128,8,2,1,0,2.705,967,750,830,630
3,1,45, LFS, Fem, Masc,75,125,125,3,8,1,0,2.038,906,369,830,270
3,1,46, LFS, Masc, Fem,75,29,29,3,8,1,0,1.75,945,410,830,270
3,1,47, LFS, Masc, Fem,75,105,105,6,9,1,0,3.048,1245,385,1130,270
3,1,48, LFS, Masc, Fem,75,125,125,6,9,1,0,9.215,1194,337,1130,270
3,1,49, LFS, Fem, Masc,75,128,128,6,2,1,0,5.591,909,770,830,630
3,1,50, LFS, Fem, Masc,75,68,68,8,1,1,1,3.593,596,713,530,630
3,1,51, LFS, Fem, Masc,75,143,143,6,9,1,0,5.682,1254,420,1130,270
3,1,52, LFS, Fem, Masc,75,141,141,8,7,1,0,5.64,675,409,530,270
3,1,53, LFS, Fem, Masc,75,172,172,8,3,1,0,5.047,1269,738,1130,630
3,1,54, LFS, Masc, Fem,75,69,69,8,7,1,0,3.102,616,378,530,270
3,1,55, LFS, Fem, Masc,75,123,123,6,7,1,0,12.795,638,335,530,270
3,1,56, LFS, Masc, Fem,75,172,172,3,8,1,0,4.724,973,394,830,270
3,1,57, LFS, Masc, Fem,75,12,12,6,8,5,0,6.121,640,367,830,270
3,1,58, LFS, Masc, Fem,75,132,132,3,8,1,0,3.354,930,327,830,270
3,1,59, LFS, Fem, Masc,75,173,173,3,6,1,0,3.941,1220,505,1130,450
3,1,60, LFS, Masc, Fem,75,130,130,8,2,1,0,5.017,953,744,830,630
3,1,61, LFS, Masc, Fem,75,140,140,8,9,1,0,12.52,1241,364,1130,270
3,1,62, LFS, Masc, Fem,75,41,41,3,6,1,0,1.805,1210,536,1130,450
3,1,63, LFS, Fem, Masc,75,140,140,3,4,1,0,6.174,598,576,530,450
3,1,64, LFS, Fem, Masc,75,132,132,8,6,1,0,14.896,1216,541,1130,450
3,1,65, LFS, Fem, Masc,75,131,131,6,3,1,0,3.157,1198,732,1130,630
3,1,66, LFS, Masc, Fem,75,63,63,8,9,1,0,2.247,1253,376,1130,270
3,2,67, LFS, Masc, Fem,75,123,123,6,7,1,0,4.266,678,368,530,270
3,2,68, LFS, Fem, Masc,75,21,21,8,3,1,0,4.488,1184,733,1130,630
3,2,69, LFS, Fem, Masc,75,21,21,6,9,1,0,3.317,1262,360,1130,270
3,2,70, LFS, Fem, Masc,75,141,141,6,9,1,0,2.473,1274,406,1130,270
3,2,71, LFS, Masc, Fem,75,130,130,3,4,1,0,2.552,631,577,530,450
3,2,72, LFS, Fem, Masc,75,130,130,6,3,1,0,5.234,1246,760,1130,630
3,2,73, LFS, Masc, Fem,75,121,121,8,6,1,0,3.65,1238,561,1130,450
3,2,74, LFS, Fem, Masc,75,12,12,3,8,1,0,3.321,866,369,830,270
3,2,75, LFS, Masc, Fem,75,172,172,6,9,1,0,2.885,1250,387,1130,270
3,2,76, LFS, Fem, Masc,75,63,63,8,8,1,0,7.338,936,355,830,270
3,2,77, LFS, Fem, Masc,75,33,33,3,4,1,0,3.302,616,567,530,450
3,2,78, LFS, Fem, Masc,75,22,22,3,8,1,0,1.362,952,369,830,270
3,2,79, LFS, Masc, Fem,75,4,4,3,4,1,0,2.38,610,557,530,450
3,2,80, LFS, Fem, Masc,75,92,92,3,8,1,0,3.31,976,386,830,270
3,2,81, LFS, Masc, Fem,75,131,131,6,3,1,0,2.563,1274,767,1130,630
3,2,82, LFS, Fem, Masc,75,101,101,3,8,1,0,2.549,934,398,830,270
3,2,83, LFS, Fem, Masc,75,123,123,3,8,1,0,6.511,926,373,830,270
3,2,84, LFS, Masc, Fem,75,69,69,6,8,1,0,5.58,968,384,830,270
3,2,85, LFS, Masc, Fem,75,104,104,8,3,1,0,2.422,1250,785,1130,630
3,2,86, LFS, Fem, Masc,75,125,125,6,2,1,0,2.614,951,746,830,630
3,2,87, LFS, Masc, Fem,75,128,128,8,6,1,0,5.086,1240,591,1130,450
3,2,88, LFS, Fem, Masc,75,121,121,6,2,1,0,1.931,946,731,830,630
3,2,89, LFS, Masc, Fem,75,22,22,3,4,1,0,2.415,635,530,530,450
3,2,90, LFS, Fem, Masc,75,132,132,3,4,1,0,3.031,630,552,530,450
3,2,91, LFS, Fem, Masc,75,138,138,6,8,1,0,3.094,934,397,830,270
3,2,92, LFS, Masc, Fem,75,41,41,8,8,1,0,9.284,957,383,830,270
3,2,93, LFS, Masc, Fem,75,125,125,6,2,1,0,2.497,946,768,830,630
3,2,94, LFS, Masc, Fem,75,143,143,8,9,1,0,7.726,1273,381,1130,270
3,2,95, LFS, Masc, Fem,75,33,33,6,2,1,0,5.202,923,719,830,630
3,2,96, LFS, Masc, Fem,75,68,68,8,3,1,0,4.979,1265,713,1130,630
3,2,97, LFS, Fem, Masc,75,41,41,8,1,1,1,4.773,653,753,530,630
3,2,98, LFS, Masc, Fem,75,138,138,6,3,1,0,4.014,1255,723,1130,630
3,2,99, LFS, Fem, Masc,75,172,172,6,7,1,0,2.655,591,352,530,270
3,2,100, LFS, Masc, Fem,75,105,105,8,8,1,0,3.598,938,359,830,270
3,2,101, LFS, Fem, Masc,75,29,29,3,8,1,0,2.55,960,407,830,270
3,2,102, LFS, Fem, Masc,75,4,4,8,2,1,0,2.601,938,740,830,630
3,2,103, LFS, Fem, Masc,75,18,18,3,8,1,0,1.29,943,365,830,270
3,2,104, LFS, Masc, Fem,75,92,92,6,1,1,1,2.055,646,725,530,630
3,2,105, LFS, Fem, Masc,75,103,103,6,8,1,0,2.958,970,390,830,270
3,2,106, LFS, Masc, Fem,75,132,132,3,4,1,0,1.729,617,534,530,450
3,2,107, LFS, Masc, Fem,75,141,141,3,8,1,0,1.565,958,390,830,270
3,2,108, LFS, Masc, Fem,75,26,26,6,9,3,0,4.407,1222,732,1130,270
3,2,109, LFS, Masc, Fem,75,101,101,3,8,1,0,2.182,905,393,830,270
3,2,110, LFS, Fem, Masc,75,104,104,8,3,1,0,6.272,1220,747,1130,630
3,2,111, LFS, Masc, Fem,75,103,103,8,7,1,0,14.262,672,376,530,270
3,2,112, LFS, Fem, Masc,75,69,69,6,7,1,0,9.245,631,388,530,270
3,2,113, LFS, Fem, Masc,75,26,26,8,1,1,1,3.044,645,730,530,630
3,2,114, LFS, Masc, Fem,75,117,117,6,7,1,0,8.156,661,395,530,270
3,2,115, LFS, Fem, Masc,75,68,68,8,3,1,0,2.879,1221,754,1130,630
3,2,116, LFS, Masc, Fem,75,29,29,6,7,1,0,6.941,633,403,530,270
3,2,117, LFS, Fem, Masc,75,117,117,3,6,1,0,3.52,1229,565,1130,450
3,2,118, LFS, Fem, Masc,75,105,105,8,9,1,0,2.789,1264,386,1130,270
3,2,119, LFS, Fem, Masc,75,140,140,8,3,1,0,3.662,1210,769,1130,630
3,2,120, LFS, Fem, Masc,75,128,128,6,3,1,0,2.685,1198,729,1130,630
3,2,121, LFS, Masc, Fem,75,12,12,3,4,1,0,2.098,619,593,530,450
3,2,122, LFS, Masc, Fem,75,140,140,8,1,1,1,1.999,663,712,530,630
3,2,123, LFS, Fem, Masc,75,108,108,6,7,1,0,8.487,629,380,530,270
3,2,124, LFS, Fem, Masc,75,143,143,3,4,1,0,2.381,670,551,530,450
3,2,125, LFS, Masc, Fem,75,21,21,6,2,1,0,2.19,976,728,830,630
3,2,126, LFS, Fem, Masc,75,131,131,6,1,1,1,3.616,598,691,530,630
3,2,127, LFS, Fem, Masc,75,31,31,8,9,1,0,2.968,1262,386,1130,270
3,2,128, LFS, Fem, Masc,75,173,173,8,9,1,0,2.442,1254,355,1130,270
3,2,129, LFS, Fem, Masc,75,68,68,8,9,1,0,1.89,1282,388,1130,270
3,2,130, LFS, Masc, Fem,75,18,18,6,9,1,0,3.799,1244,380,1130,270
3,2,131, LFS, Masc, Fem,75,31,31,6,2,1,0,2.119,935,750,830,630
3,2,132, LFS, Fem, Masc,75,141,141,8,8,1,0,4.26,952,350,830,270
3,3,133, LFS, Masc, Fem,75,108,108,6,2,1,0,2.644,944,765,830,630
3,3,134, LFS, Fem, Masc,75,125,125,3,4,1,0,2.355,621,551,530,450
3,3,135, LFS, Fem, Masc,75,22,22,3,6,1,0,2.542,1206,552,1130,450
3,3,136, LFS, Fem, Masc,75,29,29,6,9,1,0,1.929,1249,345,1130,270
3,3,137, LFS, Fem, Masc,75,138,138,6,7,1,0,4.813,644,373,530,270
3,3,138, LFS, Masc, Fem,75,173,173,3,8,1,0,1.365,953,372,830,270
3,3,139, LFS, Masc, Fem,75,117,117,3,4,1,0,2.255,624,542,530,450
3,3,140, LFS, Masc, Fem,75,18,18,8,6,1,0,3.758,1232,591,1130,450
3,3,141, LFS, Masc, Fem,75,92,92,3,4,1,0,2.096,618,556,530,450
3,3,142, LFS, Masc, Fem,75,29,29,3,4,1,0,2.141,631,563,530,450
3,3,143, LFS, Masc, Fem,75,132,132,3,4,1,0,2.257,647,551,530,450
3,3,144, LFS, Fem, Masc,75,108,108,8,9,1,0,2.015,1272,390,1130,270
3,3,145, LFS, Fem, Masc,75,69,69,8,1,1,1,4.879,620,749,530,630
3,3,146, LFS, Fem, Masc,75,104,104,3,4,1,0,3.589,628,537,530,450
3,3,147, LFS, Masc, Fem,75,41,41,6,3,1,0,1.75,1221,750,1130,630
3,3,148, LFS, Masc, Fem,75,103,103,6,8,1,0,10.233,964,381,830,270
3,3,149, LFS, Masc, Fem,75,63,63,8,7,1,0,4.273,632,400,530,270
3,3,150, LFS, Masc, Fem,75,105,105,6,3,1,0,2.135,1229,778,1130,630
3,3,151, LFS, Masc, Fem,75,138,138,3,6,1,0,1.594,1204,519,1130,450
3,3,152, LFS, Fem, Masc,75,130,130,8,9,1,0,2.451,1292,363,1130,270
3,3,153, LFS, Fem, Masc,75,123,123,8,1,1,1,14.01,662,762,530,630
3,3,154, LFS, Masc, Fem,75,69,69,8,9,1,0,3.011,1233,379,1130,270
3,3,155, LFS, Fem, Masc,75,18,18,3,4,1,0,2.98,672,555,530,450
3,3,156, LFS, Fem, Masc,75,41,41,8,3,1,0,2.877,1184,744,1130,630
3,3,157, LFS, Masc, Fem,75,131,131,3,8,1,0,3.283,953,394,830,270
3,3,158, LFS, Masc, Fem,75,68,68,8,6,1,0,2.249,1223,561,1130,450
3,3,159, LFS, Masc, Fem,75,130,130,3,8,1,0,1.472,980,388,830,270
3,3,160, LFS, Masc, Fem,75,141,141,6,1,1,1,5.661,664,770,530,630
3,3,161, LFS, Masc, Fem,75,172,172,8,3,1,0,2.452,1231,705,1130,630
3,3,162, LFS, Fem, Masc,75,132,132,8,7,1,0,2.899,634,402,530,270
3,3,163, LFS, Masc, Fem,75,123,123,8,4,1,0,23.576,656,587,530,450
3,3,164, LFS, Masc, Fem,75,33,33,8,7,1,0,2.795,642,367,530,270
3,3,165, LFS, Masc, Fem,75,128,128,3,4,1,0,2.836,646,538,530,450
3,3,166, LFS, Masc, Fem,75,173,173,3,8,1,0,4.163,933,390,830,270
3,3,167, LFS, Fem, Masc,75,105,105,6,7,1,0,3.382,625,360,530,270
3,3,168, LFS, Fem, Masc,75,121,121,3,4,1,0,4.215,659,568,530,450
3,3,169, LFS, Fem, Masc,75,131,131,3,4,1,0,2.047,637,561,530,450
3,3,170, LFS, Fem, Masc,75,92,92,6,7,1,0,2.782,647,352,530,270
3,3,171, LFS, Fem, Masc,75,103,103,3,8,1,0,1.695,955,418,830,270
3,3,172, LFS, Masc, Fem,75,26,26,6,1,1,1,2.365,634,744,530,630
3,3,173, LFS, Masc, Fem,75,4,4,6,1,1,1,2.311,645,763,530,630
3,3,174, LFS, Masc, Fem,75,108,108,8,6,1,0,6.347,1222,573,1130,450
3,3,175, LFS, Fem, Masc,75,21,21,6,3,1,0,2.958,1170,759,1130,630
3,3,176, LFS, Fem, Masc,75,117,117,3,4,1,0,3.273,638,525,530,450
3,3,177, LFS, Fem, Masc,75,4,4,8,9,1,0,2.935,1246,391,1130,270
3,3,178, LFS, Fem, Masc,75,12,12,3,6,1,0,1.851,1190,593,1130,450
3,3,179, LFS, Masc, Fem,75,104,104,8,4,1,0,11.073,649,579,530,450
3,3,180, LFS, Fem, Masc,75,63,63,6,1,1,1,3.632,660,725,530,630
3,3,181, LFS, Masc, Fem,75,22,22,8,4,1,0,5.815,659,555,530,450
3,3,182, LFS, Masc, Fem,75,12,12,3,8,1,0,3.479,936,382,830,270
3,3,183, LFS, Masc, Fem,75,140,140,8,6,1,0,6.732,1228,557,1130,450
3,3,184, LFS, Masc, Fem,75,21,21,3,6,1,0,1.44,1180,521,1130,450
3,3,185, LFS, Fem, Masc,75,128,128,6,1,1,1,2.271,650,736,530,630
3,3,186, LFS, Masc, Fem,75,31,31,8,6,1,0,2.189,1231,550,1130,450
3,3,187, LFS, Fem, Masc,75,173,173,8,2,1,0,2.535,931,710,830,630
3,3,188, LFS, Fem, Masc,75,31,31,6,2,1,0,2.21,935,711,830,630
3,3,189, LFS, Masc, Fem,75,125,125,6,8,1,0,2.131,984,353,830,270
3,3,190, LFS, Masc, Fem,75,101,101,3,6,1,0,1.598,1171,555,1130,450
3,3,191, LFS, Masc, Fem,75,143,143,6,9,1,0,3.478,1252,396,1130,270
3,3,192, LFS, Masc, Fem,75,121,121,3,8,1,0,1.908,954,392,830,270
3,3,193, LFS, Fem, Masc,75,140,140,6,9,1,0,1.657,1250,398,1130,270
3,3,194, LFS, Fem, Masc,75,26,26,8,4,1,0,3.063,627,577,530,450
3,3,195, LFS, Fem, Masc,75,143,143,8,1,1,1,2.613,668,779,530,630
3,3,196, LFS, Fem, Masc,75,172,172,3,4,1,0,1.926,650,534,530,450
3,3,197, LFS, Fem, Masc,75,101,101,3,8,1,0,3.953,926,399,830,270
3,3,198, LFS, Fem, Masc,75,33,33,6,1,1,1,1.62,655,759,530,630
4,1,1, LFS, Masc, Fem,75,172,172,3,4,1,0,4.76,617,569,530,450
4,1,2, LFS, Fem, Masc,75,173,173,8,2,1,0,3.531,937,745,830,630
4,1,3, LFS, Fem, Masc,75,68,68,3,8,1,0,1.973,952,379,830,270
4,1,4, LFS, Fem, Masc,75,104,104,6,3,1,0,2.792,1216,737,1130,630
4,1,5, LFS, Masc, Fem,75,26,26,6,9,5,0,3.32,931,731,1130,270
4,1,6, LFS, Masc, Fem,75,108,108,6,7,4,0,1.57,911,371,530,270
4,1,7, LFS, Fem, Masc,75,22,22,3,4,1,0,2.202,636,578,530,450
4,1,8, LFS, Fem, Masc,75,21,21,3,8,1,0,2.291,985,371,830,270
4,1,9, LFS, Masc, Fem,75,63,63,3,6,1,0,2.152,1246,560,1130,450
4,1,10, LFS, Fem, Masc,75,121,121,6,9,1,0,3.435,1256,340,1130,270
4,1,11, LFS, Fem, Masc,75,33,33,8,6,1,0,3.674,1232,598,1130,450
4,1,12, LFS, Fem, Masc,75,140,140,6,8,1,0,2.816,988,388,830,270
4,1,13, LFS, Fem, Masc,75,143,143,6,7,5,0,7.664,627,718,530,270
4,1,14, LFS, Masc, Fem,75,68,68,6,9,1,0,3.3,1193,356,1130,270
4,1,15, LFS, Fem, Masc,75,4,4,8,2,1,0,2.705,893,708,830,630
4,1,16, LFS, Fem, Masc,75,128,128,3,8,1,0,2.141,900,367,830,270
4,1,17, LFS, Fem, Masc,75,132,132,8,4,1,0,2.161,671,541,530,450
4,1,18, LFS, Masc, Fem,75,101,101,3,4,1,0,1.979,603,541,530,450
4,1,19, LFS, Fem, Masc,75,12,12,8,1,1,1,4.453,653,737,530,630
4,1,20, LFS, Masc, Fem,75,12,12,6,1,1,1,3.244,598,707,530,630
4,1,21, LFS, Masc, Fem,75,121,121,6,1,1,1,2.691,622,766,530,630
4,1,22, LFS, Masc, Fem,75,138,138,6,9,1,0,2.976,1249,365,1130,270
4,1,23, LFS, Masc, Fem,75,41,41,6,2,1,0,3.242,963,747,830,630
4,1,24, LFS, Masc, Fem,75,29,29,6,1,1,1,4.802,621,750,530,630
4,1,25, LFS, Fem, Masc,75,117,117,3,6,1,0,1.81,1213,586,1130,450
4,1,26, LFS, Fem, Masc,75,125,125,3,4,3,0,3.299,959,389,530,450
4,1,27, LFS, Fem, Masc,75,138,138,8,2,1,0,4.703,951,735,830,630
4,1,28, LFS, Fem, Masc,75,41,41,3,4,1,0,1.996,603,532,530,450
4,1,29, LFS, Fem, Masc,75,26,26,8,2,1,0,4.908,947,710,830,630
4,1,30, LFS, Fem, Masc,75,92,92,3,4,1,0,3.841,653,550,530,450
4,1,31, LFS, Fem, Masc,75,130,130,6,9,1,0,2.633,1203,405,1130,270
4,1,32, LFS, Fem, Masc,75,31,31,3,4,1,0,2.736,671,574,530,450
4,1,33, LFS, Fem, Masc,75,103,103,6,9,1,0,3.212,1270,388,1130,270
4,1,34, LFS, Masc, Fem,75,18,18,8,4,1,0,3.02,603,534,530,450
4,1,35, LFS, Masc, Fem,75,117,117,8,6,1,0,2.957,1231,520,1130,450
4,1,36, LFS, Fem, Masc,75,172,172,6,1,1,1,3.055,658,741,530,630
4,1,37, LFS, Fem, Masc,75,63,63,8,2,1,0,4.334,947,722,830,630
4,1,38, LFS, Masc, Fem,75,92,92,6,2,1,0,2.577,876,713,830,630
4,1,39, LFS, Masc, Fem,75,69,69,8,9,1,0,2.203,1258,364,1130,270
4,1,40, LFS, Masc, Fem,75,140,140,3,8,1,0,2.156,947,373,830,270
4,1,41, LFS, Masc, Fem,75,22,22,3,8,1,0,2.215,928,364,830,270
4,1,42, LFS, Masc, Fem,75,131,131,3,4,1,0,1.775,625,575,530,450
4,1,43, LFS, Masc, Fem,75,130,130,3,4,1,0,2.249,659,504,530,450
4,1,44, LFS, Masc, Fem,75,4,4,3,6,1,0,1.304,1220,564,1130,450
4,1,45, LFS, Fem, Masc,75,141,141,8,4,1,0,1.876,648,584,530,450
4,1,46, LFS, Masc, Fem,75,125,125,6,8,1,0,2.059,941,389,830,270
4,1,47, LFS, Masc, Fem,75,128,128,6,3,1,0,2.561,1244,750,1130,630
4,1,48, LFS, Masc, Fem,75,123,123,3,8,1,0,2.54,957,386,830,270
4,1,49, LFS, Masc, Fem,75,31,31,8,6,1,0,2.623,1249,559,1130,450
4,1,50, LFS, Masc, Fem,75,143,143,6,7,4,0,3.375,639,739,530,270
4,1,51, LFS, Masc, Fem,75,141,141,3,8,1,0,2.655,960,384,830,270
4,1,52, LFS, Fem, Masc,75,101,101,8,4,1,0,6.15,668,561,530,450
4,1,53, LFS, Fem, Masc,75,18,18,6,1,1,1,2.745,666,747,530,630
4,1,54, LFS, Fem, Masc,75,131,131,8,1,1,1,9.381,638,709,530,630
4,1,55, LFS, Fem, Masc,75,69,69,3,8,1,0,1.654,918,408,830,270
4,1,56, LFS, Fem, Masc,75,105,105,6,3,1,0,5.093,1245,723,1130,630
4,1,57, LFS, Fem, Masc,75,108,108,3,6,1,0,2.298,1254,564,1130,450
4,1,58, LFS, Masc, Fem,75,105,105,8,3,1,0,4.671,1242,731,1130,630
4,1,59, LFS, Fem, Masc,75,123,123,6,3,1,0,8.357,1211,749,1130,630
4,1,60, LFS, Masc, Fem,75,132,132,8,4,1,0,2.84,651,554,530,450
4,1,61, LFS, Fem, Masc,75,29,29,3,4,1,0,1.919,674,560,530,450
4,1,62, LFS, Masc, Fem,75,173,173,8,4,1,0,1.755,590,541,530,450
4,1,63, LFS, Fem, Masc,75,29,29,8,8,1,0,2.126,958,342,830,270
4,1,64, LFS, Fem, Masc,75,92,92,3,4,1,0,3.258,625,566,530,450
4,1,65, LFS, Fem, Masc,75,31,31,8,9,1,0,4.001,1274,334,1130,270
4,1,66, LFS, Masc, Fem,75,104,104,3,8,1,0,2.33,950,371,830,270
4,2,67, LFS, Masc, Fem,75,21,21,8,6,1,0,1.885,1225,584,1130,450
4,2,68, LFS, Masc, Fem,75,103,103,6,1,1,1,3.378,616,705,530,630
4,2,69, LFS, Masc, Fem,75,33,33,8,4,1,0,1.668,607,541,530,450
4,2,70, LFS, Fem, Masc,75,26,26,6,9,1,0,4.442,1247,367,1130,270
4,2,71, LFS, Fem, Masc,75,68,68,3,6,1,0,2.77,1234,603,1130,450
4,2,72, LFS, Masc, Fem,75,29,29,3,8,1,0,1.94,954,376,830,270
4,2,73, LFS, Fem, Masc,75,101,101,8,2,1,0,6.311,919,713,830,630
4,2,74, LFS, Fem, Masc,75,141,141,3,8,1,0,1.58,978,425,830,270
4,2,75, LFS, Masc, Fem,75,117,117,3,4,1,0,2.245,647,534,530,450
4,2,76, LFS, Masc, Fem,75,140,140,3,6,1,0,3.125,1220,538,1130,450
4,2,77, LFS, Masc, Fem,75,132,132,3,6,1,0,1.441,1275,571,1130,450
4,2,78, LFS, Fem, Masc,75,103,103,6,3,1,0,4.704,1213,690,1130,630
4,2,79, LFS, Fem, Masc,75,125,125,8,6,1,0,2.373,1217,547,1130,450
4,2,80, LFS, Masc, Fem,75,172,172,8,3,1,0,6.431,1211,720,1130,630
4,2,81, LFS, Fem, Masc,75,143,143,6,7,6,0,6.087,654,717,530,270
4,2,82, LFS, Masc, Fem,75,123,123,8,4,1,0,2.857,634,572,530,450
4,2,83, LFS, Masc, Fem,75,131,131,6,2,1,0,2.68,941,709,830,630
4,2,84, LFS, Fem, Masc,75,138,138,8,3,1,0,2.981,1205,695,1130,630
4,2,85, LFS, Masc, Fem,75,121,121,3,6,1,0,2.662,1247,525,1130,450
4,2,86, LFS, Masc, Fem,75,143,143,3,8,1,0,11.3,906,378,830,270
4,2,87, LFS, Fem, Masc,75,69,69,8,9,1,0,2.53,1220,381,1130,270
4,2,88, LFS, Masc, Fem,75,125,125,6,9,1,0,3.549,1180,401,1130,270
4,2,89, LFS, Masc, Fem,75,41,41,3,6,1,0,1.568,1188,552,1130,450
4,2,90, LFS, Masc, Fem,75,138,138,3,8,1,0,1.466,957,390,830,270
4,2,91, LFS, Fem, Masc,75,104,104,6,7,1,0,4.256,642,394,530,270
4,2,92, LFS, Fem, Masc,75,21,21,3,6,1,0,1.687,1267,531,1130,450
4,2,93, LFS, Fem, Masc,75,33,33,6,9,1,0,2.892,1250,395,1130,270
4,2,94, LFS, Fem, Masc,75,128,128,3,8,1,0,1.897,968,378,830,270
4,2,95, LFS, Fem, Masc,75,22,22,6,3,1,0,2.342,1202,689,1130,630
4,2,96, LFS, Masc, Fem,75,68,68,8,3,1,0,4.361,1225,773,1130,630
4,2,97, LFS, Masc, Fem,75,12,12,6,7,1,0,3.076,624,320,530,270
4,2,98, LFS, Fem, Masc,75,117,117,3,8,1,0,2.122,965,387,830,270
4,2,99, LFS, Masc, Fem,75,173,173,6,2,1,0,3.126,906,729,830,630
4,2,100, LFS, Fem, Masc,75,131,131,6,7,1,0,3.931,662,367,530,270
4,2,101, LFS, Masc, Fem,75,108,108,3,4,1,0,2.054,638,522,530,450
4,2,102, LFS, Masc, Fem,75,18,18,6,2,1,0,2.477,918,738,830,630
4,2,103, LFS, Masc, Fem,75,33,33,3,4,1,0,2.035,634,511,530,450
4,2,104, LFS, Masc, Fem,75,105,105,8,4,1,0,7.202,641,558,530,450
4,2,105, LFS, Masc, Fem,75,103,103,8,4,1,0,6.123,653,527,530,450
4,2,106, LFS, Masc, Fem,75,31,31,6,8,1,0,5.119,971,390,830,270
4,2,107, LFS, Fem, Masc,75,130,130,6,7,1,0,3.491,643,373,530,270
4,2,108, LFS, Masc, Fem,75,130,130,8,7,1,0,6.361,684,396,530,270
4,2,109, LFS, Fem, Masc,75,121,121,6,9,1,0,3.355,1252,384,1130,270
4,2,110, LFS, Masc, Fem,75,69,69,6,2,1,0,2.862,960,768,830,630
4,2,111, LFS, Masc, Fem,75,141,141,8,4,1,0,2.972,619,563,530,450
4,2,112, LFS, Fem, Masc,75,173,173,3,4,1,0,1.87,668,543,530,450
4,2,113, LFS, Fem, Masc,75,63,63,8,4,1,0,2.629,662,552,530,450
4,2,114, LFS, Masc, Fem,75,21,21,6,8,1,0,1.709,934,397,830,270
4,2,115, LFS, Fem, Masc,75,12,12,6,1,1,1,3.009,674,709,530,630
4,2,116, LFS, Fem, Masc,75,105,105,3,8,1,0,1.986,945,376,830,270
4,2,117, LFS, Masc, Fem,75,26,26,3,8,1,0,2.252,964,400,830,270
4,2,118, LFS, Masc, Fem,75,128,128,6,7,1,0,2.29,608,375,530,270
4,2,119, LFS, Fem, Masc,75,18,18,3,4,1,0,1.832,659,551,530,450
4,2,120, LFS, Fem, Masc,75,140,140,3,4,1,0,1.791,615,545,530,450
4,2,121, LFS, Fem, Masc,75,108,108,8,3,1,0,2.48,1246,740,1130,630
4,2,122, LFS, Fem, Masc,75,123,123,8,4,1,0,5.078,680,546,530,450
4,2,123, LFS, Fem, Masc,75,132,132,6,2,1,0,1.884,945,744,830,630
4,2,124, LFS, Fem, Masc,75,41,41,3,4,1,0,1.257,619,508,530,450
4,2,125, LFS, Fem, Masc,75,172,172,8,1,1,1,4.64,576,749,530,630
4,2,126, LFS, Masc, Fem,75,63,63,8,7,1,0,1.736,647,350,530,270
4,2,127, LFS, Fem, Masc,75,4,4,3,4,1,0,2.091,678,542,530,450
4,2,128, LFS, Masc, Fem,75,104,104,3,6,1,0,1.496,1272,571,1130,450
4,2,129, LFS, Masc, Fem,75,4,4,8,6,1,0,2.781,1203,561,1130,450
4,2,130, LFS, Masc, Fem,75,92,92,8,1,1,1,3.142,667,704,530,630
4,2,131, LFS, Masc, Fem,75,22,22,8,8,1,0,3.266,962,359,830,270
4,2,132, LFS, Masc, Fem,75,101,101,3,4,2,0,1.744,957,399,530,450
4,3,133, LFS, Fem, Masc,75,103,103,6,8,1,0,1.696,943,413,830,270
4,3,134, LFS, Fem, Masc,75,108,108,8,2,1,0,2.925,933,727,830,630
4,3,135, LFS, Fem, Masc,75,18,18,6,7,1,0,1.673,615,385,530,270
4,3,136, LFS, Masc, Fem,75,22,22,8,9,1,0,3.767,1271,378,1130,270
4,3,137, LFS, Fem, Masc,75,132,132,3,8,1,0,2.073,946,384,830,270
4,3,138, LFS, Fem, Masc,75,69,69,6,2,1,0,1.719,932,729,830,630
4,3,139, LFS, Masc, Fem,75,105,105,3,4,1,0,1.387,662,512,530,450
4,3,140, LFS, Masc, Fem,75,26,26,6,7,1,0,5.245,630,363,530,270
4,3,141, LFS, Masc, Fem,75,141,141,6,2,1,0,2.172,937,687,830,630
4,3,142, LFS, Fem, Masc,75,141,141,8,2,1,0,2.846,899,698,830,630
4,3,143, LFS, Fem, Masc,75,92,92,6,9,1,0,2.837,1245,397,1130,270
4,3,144, LFS, Masc, Fem,75,29,29,8,6,1,0,4.397,1221,544,1130,450
4,3,145, LFS, Fem, Masc,75,33,33,3,8,1,0,4.141,905,405,830,270
4,3,146, LFS, Fem, Masc,75,63,63,6,7,1,0,1.641,655,414,530,270
4,3,147, LFS, Masc, Fem,75,4,4,6,7,1,0,2.24,601,370,530,270
4,3,148, LFS, Fem, Masc,75,125,125,3,8,1,0,2.144,979,382,830,270
4,3,149, LFS, Fem, Masc,75,143,143,3,6,1,0,5.779,1216,580,1130,450
4,3,150, LFS, Fem, Masc,75,4,4,3,8,1,0,1.804,934,424,830,270
4,3,151, LFS, Fem, Masc,75,117,117,3,4,1,0,3.477,673,575,530,450
4,3,152, LFS, Fem, Masc,75,173,173,8,3,1,0,4.291,1266,749,1130,630
4,3,153, LFS, Masc, Fem,75,12,12,6,3,1,0,2.528,1206,739,1130,630
4,3,154, LFS, Masc, Fem,75,128,128,8,2,1,0,2.805,977,748,830,630
4,3,155, LFS, Fem, Masc,75,41,41,6,9,1,0,1.685,1197,378,1130,270
4,3,156, LFS, Masc, Fem,75,68,68,6,2,1,0,1.939,905,704,830,630
4,3,157, LFS, Masc, Fem,75,121,121,6,8,1,0,2.07,959,347,830,270
4,3,158, LFS, Masc, Fem,75,143,143,8,6,1,0,4.444,1217,575,1130,450
4,3,159, LFS, Fem, Masc,75,12,12,6,2,1,0,2.924,927,712,830,630
4,3,160, LFS, Masc, Fem,75,41,41,3,8,1,0,1.872,929,404,830,270
4,3,161, LFS, Fem, Masc,75,104,104,8,6,1,0,10.31,1235,548,1130,450
4,3,162, LFS, Fem, Masc,75,21,21,6,8,3,0,1.531,1284,363,830,270
4,3,163, LFS, Fem, Masc,75,128,128,8,8,1,0,5.757,918,430,830,270
4,3,164, LFS, Masc, Fem,75,69,69,8,4,1,0,2.016,650,568,530,450
4,3,165, LFS, Fem, Masc,75,22,22,8,4,1,0,2.368,596,520,530,450
4,3,166, LFS, Fem, Masc,75,123,123,3,6,1,0,2.914,1205,556,1130,450
4,3,167, LFS, Fem, Masc,75,121,121,8,1,1,1,3.526,666,731,530,630
4,3,168, LFS, Masc, Fem,75,117,117,6,3,1,0,2.466,1199,743,1130,630
4,3,169, LFS, Masc, Fem,75,123,123,8,6,1,0,5.84,1185,548,1130,450
4,3,170, LFS, Fem, Masc,75,105,105,8,8,1,0,4.663,882,365,830,270
4,3,171, LFS, Fem, Masc,75,68,68,6,9,1,0,2.366,1229,390,1130,270
4,3,172, LFS, Masc, Fem,75,131,131,6,7,1,0,3.512,648,385,530,270
4,3,173, LFS, Masc, Fem,75,108,108,8,3,1,0,2.828,1233,744,1130,630
4,3,174, LFS, Masc, Fem,75,103,103,8,7,1,0,3.165,639,406,530,270
4,3,175, LFS, Fem, Masc,75,130,130,3,4,1,0,1.671,623,564,530,450
4,3,176, LFS, Masc, Fem,75,173,173,3,6,1,0,1.501,1267,587,1130,450
4,3,177, LFS, Masc, Fem,75,140,140,3,4,1,0,2.289,669,523,530,450
4,3,178, LFS, Fem, Masc,75,172,172,6,7,1,0,3.191,612,381,530,270
4,3,179, LFS, Masc, Fem,75,33,33,8,3,1,0,3.912,1220,701,1130,630
4,3,180, LFS, Masc, Fem,75,172,172,3,8,1,0,2.628,942,378,830,270
4,3,181, LFS, Masc, Fem,75,138,138,6,3,1,0,2.573,1185,695,1130,630
4,3,182, LFS, Fem, Masc,75,138,138,6,1,1,1,2.647,603,727,530,630
4,3,183, LFS, Fem, Masc,75,140,140,6,2,1,0,5.373,921,707,830,630
4,3,184, LFS, Masc, Fem,75,125,125,3,6,1,0,1.727,1265,547,1130,450
4,3,185, LFS, Masc, Fem,75,21,21,8,9,1,0,4.37,1241,367,1130,270
4,3,186, LFS, Masc, Fem,75,92,92,8,6,1,0,3.468,1242,569,1130,450
4,3,187, LFS, Masc, Fem,75,101,101,3,6,1,0,1.77,1241,544,1130,450
4,3,188, LFS, Masc, Fem,75,18,18,8,6,1,0,1.9,1236,538,1130,450
4,3,189, LFS, Fem, Masc,75,29,29,8,1,1,1,3.089,622,722,530,630
4,3,190, LFS, Fem, Masc,75,101,101,8,4,1,0,2.271,687,537,530,450
4,3,191, LFS, Masc, Fem,75,63,63,3,4,1,0,1.421,661,538,530,450
4,3,192, LFS, Masc, Fem,75,31,31,3,8,1,0,2.021,912,344,830,270
4,3,193, LFS, Fem, Masc,75,131,131,8,6,1,0,2.773,1226,542,1130,450
4,3,194, LFS, Masc, Fem,75,132,132,8,4,1,0,3.007,655,567,530,450
4,3,195, LFS, Masc, Fem,75,130,130,6,2,1,0,1.8,970,689,830,630
4,3,196, LFS, Fem, Masc,75,26,26,3,8,1,0,1.856,944,406,830,270
4,3,197, LFS, Fem, Masc,75,31,31,8,8,1,0,2.031,946,390,830,270
4,3,198, LFS, Masc, Fem,75,104,104,6,2,1,0,1.854,946,759,830,630
5,1,1, LFS, Fem, Masc,75,22,22,8,6,2,0,4.031,650,363,1130,450
5,1,2, LFS, Fem, Masc,75,29,29,8,2,1,0,3.205,897,757,830,630
5,1,3, LFS, Masc, Fem,75,26,26,3,4,1,0,2.309,625,544,530,450
5,1,4, LFS, Fem, Masc,75,41,41,8,7,1,0,2.578,622,396,530,270
5,1,5, LFS, Masc, Fem,75,4,4,8,7,1,0,2.204,590,389,530,270
5,1,6, LFS, Masc, Fem,75,103,103,6,9,3,0,6.076,636,746,1130,270
5,1,7, LFS, Masc, Fem,75,143,143,6,3,1,0,2.536,1222,726,1130,630
5,1,8, LFS, Fem, Masc,75,172,172,3,6,2,0,4.188,667,557,1130,450
5,1,9, LFS, Masc, Fem,75,29,29,8,9,1,0,3.26,1187,399,1130,270
5,1,10, LFS, Masc, Fem,75,105,105,6,1,5,0,3.467,1223,411,530,630
5,1,11, LFS, Masc, Fem,75,172,172,8,6,7,0,4.806,944,750,1130,450
5,1,12, LFS, Masc, Fem,75,31,31,3,6,1,0,2.85,1232,574,1130,450
5,1,13, LFS, Fem, Masc,75,117,117,6,7,6,0,2.865,1224,378,530,270
5,1,14, LFS, Fem, Masc,75,103,103,8,2,8,0,4.06,619,573,830,630
5,1,15, LFS, Fem, Masc,75,140,140,8,7,1,0,2.606,637,411,530,270
5,1,16, LFS, Fem, Masc,75,125,125,8,7,1,0,3.43,642,373,530,270
5,1,17, LFS, Fem, Masc,75,69,69,6,3,1,0,5.038,1238,742,1130,630
5,1,18, LFS, Masc, Fem,75,173,173,6,3,1,0,4.342,1236,757,1130,630
5,1,19, LFS, Fem, Masc,75,138,138,3,4,1,0,3.121,623,567,530,450
5,1,20, LFS, Fem, Masc,75,92,92,3,6,1,0,3.197,1235,566,1130,450
5,1,21, LFS, Fem, Masc,75,104,104,8,1,8,0,4.382,625,379,530,630
5,1,22, LFS, Masc, Fem,75,130,130,3,6,1,0,1.61,1273,585,1130,450
5,1,23, LFS, Masc, Fem,75,117,117,6,2,1,0,1.931,938,740,830,630
5,1,24, LFS, Fem, Masc,75,31,31,6,2,1,0,2.967,967,738,830,630
5,1,25, LFS, Masc, Fem,75,125,125,3,8,1,0,2.617,961,394,830,270
5,1,26, LFS, Fem, Masc,75,105,105,8,9,1,0,4.985,1225,384,1130,270
5,1,27, LFS, Masc, Fem,75,101,101,6,8,1,0,2.442,917,398,830,270
5,1,28, LFS, Fem, Masc,75,141,141,3,6,3,0,3.786,583,575,1130,450
5,1,29, LFS, Masc, Fem,75,33,33,6,8,1,0,4.498,913,356,830,270
5,1,30, LFS, Masc, Fem,75,63,63,3,4,1,0,2.335,606,552,530,450
5,1,31, LFS, Fem, Masc,75,63,63,3,8,1,0,2.89,932,395,830,270
5,1,32, LFS, Masc, Fem,75,131,131,3,8,1,0,3.615,915,389,830,270
5,1,33, LFS, Masc, Fem,75,68,68,3,4,2,0,2.839,953,392,530,450
5,1,34, LFS, Fem, Masc,75,18,18,6,7,1,0,4.902,641,392,530,270
5,1,35, LFS, Masc, Fem,75,92,92,8,2,1,0,4.251,934,726,830,630
5,1,36, LFS, Masc, Fem,75,21,21,6,7,1,0,2.81,623,390,530,270
5,1,37, LFS, Fem, Masc,75,33,33,3,8,1,0,1.571,919,366,830,270
5,1,38, LFS, Fem, Masc,75,26,26,3,8,1,0,3.053,936,420,830,270
5,1,39, LFS, Fem, Masc,75,123,123,8,4,1,0,6.771,606,565,530,450
5,1,40, LFS, Fem, Masc,75,68,68,8,6,1,0,2.846,1220,555,1130,450
5,1,41, LFS, Masc, Fem,75,141,141,3,6,1,0,5.381,1250,543,1130,450
5,1,42, LFS, Fem, Masc,75,21,21,8,4,1,0,4.303,626,568,530,450
5,1,43, LFS, Masc, Fem,75,12,12,6,1,1,1,2.651,620,731,530,630
5,1,44, LFS, Masc, Fem,75,128,128,6,8,1,0,3.266,937,407,830,270
5,1,45, LFS, Fem, Masc,75,108,108,6,8,1,0,3.04,958,381,830,270
5,1,46, LFS, Masc, Fem,75,41,41,6,1,1,1,4.08,616,742,530,630
5,1,47, LFS, Fem, Masc,75,12,12,3,4,1,0,7.133,634,561,530,450
5,1,48, LFS, Fem, Masc,75,130,130,6,9,1,0,1.545,1244,367,1130,270
5,1,49, LFS, Fem, Masc,75,101,101,6,2,1,0,2.724,922,771,830,630
5,1,50, LFS, Masc, Fem,75,121,121,6,3,1,0,4.072,1231,756,1130,630
5,1,51, LFS, Fem, Masc,75,128,128,6,9,1,0,4.182,1272,371,1130,270
5,1,52, LFS, Fem, Masc,75,131,131,6,9,1,0,8.559,1254,396,1130,270
5,1,53, LFS, Masc, Fem,75,69,69,8,9,1,0,3.25,1223,394,1130,270
5,1,54, LFS, Fem, Masc,75,4,4,3,6,1,0,1.889,1292,557,1130,450
5,1,55, LFS, Masc, Fem,75,140,140,3,8,1,0,2.486,931,412,830,270
5,1,56, LFS, Fem, Masc,75,132,132,8,4,1,0,4.252,629,561,530,450
5,1,57, LFS, Masc, Fem,75,22,22,8,2,1,0,2.787,942,709,830,630
5,1,58, LFS, Fem, Masc,75,173,173,8,7,1,0,2.62,645,359,530,270
5,1,59, LFS, Masc, Fem,75,108,108,3,4,1,0,1.724,594,590,530,450
5,1,60, LFS, Fem, Masc,75,121,121,6,3,1,0,3.736,1246,761,1130,630
5,1,61, LFS, Masc, Fem,75,123,123,3,4,1,0,3.508,613,557,530,450
5,1,62, LFS, Fem, Masc,75,143,143,8,9,1,0,5.073,1200,399,1130,270
5,1,63, LFS, Fem, Masc,75,131,131,3,6,1,0,3.223,1243,544,1130,450
5,1,64, LFS, Masc, Fem,75,132,132,8,1,1,1,2.807,597,740,530,630
5,1,65, LFS, Fem, Masc,75,12,12,6,8,1,0,2.656,934,375,830,270
5,1,66, LFS, Masc, Fem,75,18,18,6,9,1,0,2.174,1209,410,1130,270
5,2,67, LFS, Masc, Fem,75,138,138,6,7,1,0,5.68,576,344,530,270
5,2,68, LFS, Masc, Fem,75,104,104,8,7,1,0,3.19,609,389,530,270
5,2,69, LFS, Fem, Masc,75,125,125,8,9,1,0,3.527,1206,377,1130,270
5,2,70, LFS, Fem, Masc,75,104,104,3,4,1,0,1.444,632,588,530,450
5,2,71, LFS, Masc, Fem,75,29,29,6,7,1,0,3.371,613,396,530,270
5,2,72, LFS, Fem, Masc,75,105,105,3,8,1,0,2.765,903,405,830,270
5,2,73, LFS, Fem, Masc,75,18,18,6,1,1,1,5.279,622,757,530,630
5,2,74, LFS, Masc, Fem,75,143,143,8,3,1,0,4.165,1242,721,1130,630
5,2,75, LFS, Masc, Fem,75,33,33,8,3,1,0,2.767,1244,720,1130,630
5,2,76, LFS, Fem, Masc,75,143,143,6,3,1,0,3.233,1241,770,1130,630
5,2,77, LFS, Fem, Masc,75,31,31,6,9,1,0,4.592,1242,405,1130,270
5,2,78, LFS, Fem, Masc,75,121,121,6,3,1,0,3.057,1212,724,1130,630
5,2,79, LFS, Fem, Masc,75,21,21,3,6,1,0,2.272,1191,538,1130,450
5,2,80, LFS, Masc, Fem,75,18,18,3,8,1,0,1.919,907,340,830,270
5,2,81, LFS, Masc, Fem,75,21,21,3,8,1,0,2.682,939,380,830,270
5,2,82, LFS, Fem, Masc,75,117,117,3,6,1,0,2.32,1222,574,1130,450
5,2,83, LFS, Fem, Masc,75,128,128,6,8,1,0,2.524,935,406,830,270
5,2,84, LFS, Fem, Masc,75,172,172,6,9,1,0,3.944,1236,365,1130,270
5,2,85, LFS, Masc, Fem,75,92,92,6,3,1,0,2.956,1235,755,1130,630
5,2,86, LFS, Masc, Fem,75,103,103,6,3,1,0,3.478,1227,736,1130,630
5,2,87, LFS, Masc, Fem,75,31,31,6,3,1,0,2.628,1214,739,1130,630
5,2,88, LFS, Masc, Fem,75,12,12,6,9,1,0,3.284,1222,388,1130,270
5,2,89, LFS, Masc, Fem,75,131,131,8,1,1,1,5.146,641,765,530,630
5,2,90, LFS, Fem, Masc,75,69,69,3,4,1,0,3.444,654,587,530,450
5,2,91, LFS, Masc, Fem,75,141,141,6,8,1,0,3.732,954,398,830,270
5,2,92, LFS, Fem, Masc,75,101,101,3,8,1,0,2.015,928,345,830,270
5,2,93, LFS, Fem, Masc,75,173,173,3,6,1,0,2.992,1244,567,1130,450
5,2,94, LFS, Fem, Masc,75,103,103,6,8,1,0,2.721,951,408,830,270
5,2,95, LFS, Fem, Masc,75,22,22,8,7,1,0,2.581,601,403,530,270
5,2,96, LFS, Fem, Masc,75,26,26,6,1,1,1,6.23,630,768,530,630
5,2,97, LFS, Fem, Masc,75,92,92,8,3,1,0,5.206,1230,714,1130,630
5,2,98, LFS, Fem, Masc,75,68,68,6,9,1,0,4.183,1303,392,1130,270
5,2,99, LFS, Fem, Masc,75,63,63,8,3,1,0,3.84,1215,724,1130,630
5,2,100, LFS, Fem, Masc,75,123,123,8,6,1,0,6.576,1239,520,1130,450
5,2,101, LFS, Fem, Masc,75,140,140,6,2,1,0,2.162,991,737,830,630
5,2,102, LFS, Masc, Fem,75,125,125,6,2,2,1,3.268,916,378,830,630
5,2,103, LFS, Masc, Fem,75,69,69,3,6,1,0,2.962,1235,499,1130,450
5,2,104, LFS, Masc, Fem,75,22,22,8,9,1,0,5.197,1201,355,1130,270
5,2,105, LFS, Masc, Fem,75,132,132,6,2,1,0,3.486,925,737,830,630
5,2,106, LFS, Fem, Masc,75,41,41,8,1,1,1,5.323,635,727,530,630
5,2,107, LFS, Masc, Fem,75,128,128,8,1,1,1,6.943,661,745,530,630
5,2,108, LFS, Fem, Masc,75,130,130,6,3,1,0,3.507,1235,756,1130,630
5,2,109, LFS, Masc, Fem,75,121,121,3,4,1,0,2.591,627,560,530,450
5,2,110, LFS, Fem, Masc,75,33,33,8,6,1,0,3.905,1224,561,1130,450
5,2,111, LFS, Masc, Fem,75,41,41,6,8,1,0,3.95,942,373,830,270
5,2,112, LFS, Masc, Fem,75,172,172,8,3,1,0,3.857,1201,722,1130,630
5,2,113, LFS, Masc, Fem,75,104,104,8,1,1,1,4.831,603,754,530,630
5,2,114, LFS, Masc, Fem,75,68,68,3,8,1,0,2.487,924,368,830,270
5,2,115, LFS, Masc, Fem,75,130,130,3,8,1,0,1.748,925,343,830,270
5,2,116, LFS, Masc, Fem,75,140,140,3,8,1,0,1.791,941,408,830,270
5,2,117, LFS, Fem, Masc,75,4,4,8,4,1,0,2.96,640,543,530,450
5,2,118, LFS, Masc, Fem,75,101,101,8,8,1,0,3.179,979,345,830,270
5,2,119, LFS, Masc, Fem,75,123,123,3,6,1,0,2.685,1238,564,1130,450
5,2,120, LFS, Fem, Masc,75,138,138,3,4,1,0,2.506,683,574,530,450
5,2,121, LFS, Masc, Fem,75,138,138,6,1,1,1,2.551,635,748,530,630
5,2,122, LFS, Masc, Fem,75,26,26,8,8,1,0,4.61,921,366,830,270
5,2,123, LFS, Masc, Fem,75,63,63,3,8,1,0,1.891,943,411,830,270
5,2,124, LFS, Masc, Fem,75,108,108,8,9,1,0,3.536,1278,342,1130,270
5,2,125, LFS, Fem, Masc,75,29,29,3,6,1,0,2.956,1196,601,1130,450
5,2,126, LFS, Masc, Fem,75,117,117,6,7,1,0,2.262,618,401,530,270
5,2,127, LFS, Fem, Masc,75,132,132,3,4,1,0,2.269,605,553,530,450
5,2,128, LFS, Masc, Fem,75,105,105,6,9,1,0,2.859,1246,365,1130,270
5,2,129, LFS, Masc, Fem,75,173,173,8,4,1,0,2.85,654,585,530,450
5,2,130, LFS, Masc, Fem,75,4,4,6,1,1,1,1.913,602,739,530,630
5,2,131, LFS, Fem, Masc,75,108,108,6,8,1,0,2.269,904,373,830,270
5,2,132, LFS, Masc, Fem,75,101,101,8,2,1,0,3.363,931,754,830,630
5,3,133, LFS, Fem, Masc,75,141,141,6,3,1,0,4.994,1266,745,1130,630
5,3,134, LFS, Fem, Masc,75,104,104,6,8,1,0,2.091,933,413,830,270
5,3,135, LFS, Fem, Masc,75,26,26,3,4,1,0,2.688,604,566,530,450
5,3,136, LFS, Masc, Fem,75,173,173,8,3,1,0,4.526,1271,708,1130,630
5,3,137, LFS, Masc, Fem,75,103,103,8,9,1,0,3.426,1236,408,1130,270
5,3,138, LFS, Fem, Masc,75,138,138,3,4,1,0,2.314,613,569,530,450
5,3,139, LFS, Fem, Masc,75,21,21,3,8,1,0,2.11,922,361,830,270
5,3,140, LFS, Fem, Masc,75,68,68,3,4,1,0,2.003,648,553,530,450
5,3,141, LFS, Masc, Fem,75,33,33,8,6,1,0,2.932,1250,543,1130,450
5,3,142, LFS, Masc, Fem,75,26,26,3,4,2,0,2.063,945,365,530,450
5,3,143, LFS, Masc, Fem,75,92,92,3,6,1,0,2.172,1225,540,1130,450
5,3,144, LFS, Masc, Fem,75,29,29,6,1,1,1,3.222,635,712,530,630
5,3,145, LFS, Masc, Fem,75,108,108,6,1,1,1,2.966,671,737,530,630
5,3,146, LFS, Masc, Fem,75,104,104,8,7,1,0,3.088,615,372,530,270
5,3,147, LFS, Fem, Masc,75,41,41,3,6,1,0,2.51,1264,594,1130,450
5,3,148, LFS, Fem, Masc,75,130,130,6,8,1,0,1.955,932,374,830,270
5,3,149, LFS, Masc, Fem,75,131,131,8,8,1,0,3.062,968,367,830,270
5,3,150, LFS, Masc, Fem,75,22,22,8,1,1,1,2.596,613,707,530,630
5,3,151, LFS, Masc, Fem,75,4,4,3,8,1,0,1.757,931,364,830,270
5,3,152, LFS, Masc, Fem,75,141,141,3,4,1,0,2.368,665,578,530,450
5,3,153, LFS, Fem, Masc,75,12,12,3,8,1,0,1.882,930,411,830,270
5,3,154, LFS, Fem, Masc,75,18,18,3,4,1,0,2.303,657,593,530,450
5,3,155, LFS, Fem, Masc,75,103,103,6,3,1,0,4.324,1200,713,1130,630
5,3,156, LFS, Masc, Fem,75,130,130,6,8,1,0,1.792,944,376,830,270
5,3,157, LFS, Fem, Masc,75,121,121,8,9,1,0,4.714,1261,392,1130,270
5,3,158, LFS, Fem, Masc,75,173,173,8,6,1,0,4.238,1208,586,1130,450
5,3,159, LFS, Masc, Fem,75,172,172,3,6,1,0,2.461,1242,528,1130,450
5,3,160, LFS, Masc, Fem,75,63,63,8,3,1,0,2.196,1228,711,1130,630
5,3,161, LFS, Fem, Masc,75,101,101,8,2,5,0,4.245,1242,748,830,630
5,3,162, LFS, Masc, Fem,75,143,143,3,8,1,0,3.25,930,419,830,270
5,3,163, LFS, Fem, Masc,75,131,131,8,7,1,0,7.817,670,408,530,270
5,3,164, LFS, Masc, Fem,75,68,68,8,9,1,0,4.361,1244,403,1130,270
5,3,165, LFS, Masc, Fem,75,117,117,3,6,1,0,1.892,1190,547,1130,450
5,3,166, LFS, Masc, Fem,75,31,31,3,6,1,0,2.001,1257,554,1130,450
5,3,167, LFS, Masc, Fem,75,105,105,6,1,1,1,2.57,639,741,530,630
5,3,168, LFS, Masc, Fem,75,18,18,8,3,1,0,2.58,1221,739,1130,630
5,3,169, LFS, Masc, Fem,75,12,12,3,8,1,0,1.773,935,370,830,270
5,3,170, LFS, Fem, Masc,75,105,105,3,6,3,0,1.847,930,398,1130,450
5,3,171, LFS, Fem, Masc,75,132,132,6,1,1,1,2.972,638,735,530,630
5,3,172, LFS, Fem, Masc,75,123,123,6,9,1,0,3.303,1258,378,1130,270
5,3,173, LFS, Masc, Fem,75,69,69,8,8,1,0,2.836,952,378,830,270
5,3,174, LFS, Fem, Masc,75,33,33,8,9,1,0,11.163,1225,352,1130,270
5,3,175, LFS, Fem, Masc,75,125,125,8,3,1,0,4.417,1204,756,1130,630
5,3,176, LFS, Fem, Masc,75,22,22,6,7,1,0,2.701,678,402,530,270
5,3,177, LFS, Masc, Fem,75,132,132,3,6,1,0,1.626,1297,549,1130,450
5,3,178, LFS, Masc, Fem,75,41,41,8,4,1,0,4.018,627,571,530,450
5,3,179, LFS, Fem, Masc,75,63,63,6,3,1,0,3.338,1192,739,1130,630
5,3,180, LFS, Fem, Masc,75,4,4,3,8,1,0,2.198,946,366,830,270
5,3,181, LFS, Fem, Masc,75,128,128,8,1,1,1,3.447,679,740,530,630
5,3,182, LFS, Masc, Fem,75,21,21,8,6,1,0,6.533,1247,500,1130,450
5,3,183, LFS, Fem, Masc,75,141,141,3,4,1,0,2.817,661,541,530,450
5,3,184, LFS, Fem, Masc,75,92,92,6,8,1,0,2.209,910,392,830,270
5,3,185, LFS, Fem, Masc,75,31,31,3,8,1,0,1.601,939,383,830,270
5,3,186, LFS, Fem, Masc,75,143,143,3,4,1,0,3.658,672,592,530,450
5,3,187, LFS, Masc, Fem,75,123,123,6,2,1,0,4.72,929,745,830,630
5,3,188, LFS, Fem, Masc,75,117,117,3,8,1,0,2.012,925,352,830,270
5,3,189, LFS, Fem, Masc,75,172,172,8,6,1,0,4.941,1240,594,1130,450
5,3,190, LFS, Masc, Fem,75,128,128,3,8,1,0,1.888,905,395,830,270
5,3,191, LFS, Fem, Masc,75,140,140,8,1,1,1,5.925,641,775,530,630
5,3,192, LFS, Fem, Masc,75,69,69,6,8,1,0,1.97,924,371,830,270
5,3,193, LFS, Fem, Masc,75,29,29,8,1,7,0,5.084,951,409,530,630
5,3,194, LFS, Masc, Fem,75,138,138,8,2,1,0,2.661,979,740,830,630
5,3,195, LFS, Masc, Fem,75,140,140,3,4,3,0,2.676,926,414,530,450
5,3,196, LFS, Fem, Masc,75,108,108,8,7,1,0,1.897,634,365,530,270
5,3,197, LFS, Masc, Fem,75,121,121,6,1,1,1,2.709,609,744,530,630
5,3,198, LFS, Masc, Fem,75,125,125,3,4,1,0,2.569,635,557,530,450
6,1,1, LFS, Fem, Masc,75,130,130,8,9,1,0,3.862,1247,412,1130,270
6,1,2, LFS, Fem, Masc,75,103,103,6,8,1,0,2.436,889,314,830,270
6,1,3, LFS, Fem, Masc,75,92,92,6,3,1,0,2.507,1270,743,1130,630
6,1,4, LFS, Masc, Fem,75,128,128,8,1,1,1,2.656,628,759,530,630
6,1,5, LFS, Fem, Masc,75,140,140,6,2,1,0,2.287,939,713,830,630
6,1,6, LFS, Masc, Fem,75,33,33,3,4,1,0,1.916,556,543,530,450
6,1,7, LFS, Masc, Fem,75,31,31,6,3,1,0,3.296,1258,757,1130,630
6,1,8, LFS, Masc, Fem,75,22,22,8,6,1,0,2.413,1197,556,1130,450
6,1,9, LFS, Masc, Fem,75,108,108,3,8,1,0,1.757,909,401,830,270
6,1,10, LFS, Masc, Fem,75,132,132,3,8,1,0,1.584,939,366,830,270
6,1,11, LFS, Masc, Fem,75,104,104,3,8,1,0,1.697,921,377,830,270
6,1,12, LFS, Fem, Masc,75,4,4,8,4,1,0,3.302,680,580,530,450
6,1,13, LFS, Masc, Fem,75,117,117,6,3,1,0,2.179,1216,767,1130,630
6,1,14, LFS, Fem, Masc,75,29,29,3,6,1,0,2.421,1237,576,1130,450
6,1,15, LFS, Fem, Masc,75,41,41,3,6,1,0,2.277,1266,581,1130,450
6,1,16, LFS, Fem, Masc,75,33,33,6,7,1,0,2.323,612,375,530,270
6,1,17, LFS, Masc, Fem,75,123,123,6,3,1,0,2.663,1270,755,1130,630
6,1,18, LFS, Masc, Fem,75,103,103,3,4,1,0,2.013,646,527,530,450
6,1,19, LFS, Masc, Fem,75,105,105,8,3,1,0,3.013,1278,758,1130,630
6,1,20, LFS, Fem, Masc,75,104,104,8,4,1,0,2.461,651,539,530,450
6,1,21, LFS, Masc, Fem,75,121,121,6,7,1,0,1.476,619,384,530,270
6,1,22, LFS, Fem, Masc,75,172,172,6,7,1,0,2.386,609,332,530,270
6,1,23, LFS, Fem, Masc,75,128,128,6,9,1,0,2.227,1202,402,1130,270
6,1,24, LFS, Masc, Fem,75,68,68,8,8,1,0,1.747,971,378,830,270
6,1,25, LFS, Fem, Masc,75,26,26,3,8,1,0,2.158,940,373,830,270
6,1,26, LFS, Masc, Fem,75,143,143,3,4,1,0,5.417,602,552,530,450
6,1,27, LFS, Masc, Fem,75,131,131,8,2,1,0,3.625,1001,744,830,630
6,1,28, LFS, Masc, Fem,75,12,12,8,9,1,0,1.857,1233,328,1130,270
6,1,29, LFS, Fem, Masc,75,143,143,8,1,3,0,3.632,931,712,530,630
6,1,30, LFS, Masc, Fem,75,141,141,6,7,1,0,2.622,634,397,530,270
6,1,31, LFS, Fem, Masc,75,125,125,8,6,1,0,5.262,1239,547,1130,450
6,1,32, LFS, Masc, Fem,75,41,41,6,9,1,0,1.692,1252,352,1130,270
6,1,33, LFS, Masc, Fem,75,63,63,6,2,1,0,2.89,919,767,830,630
6,1,34, LFS, Fem, Masc,75,108,108,8,8,1,0,2.607,931,397,830,270
6,1,35, LFS, Fem, Masc,75,117,117,8,7,1,0,3.408,635,373,530,270
6,1,36, LFS, Masc, Fem,75,21,21,6,9,1,0,2.449,1278,387,1130,270
6,1,37, LFS, Fem, Masc,75,132,132,3,4,1,0,2.104,609,572,530,450
6,1,38, LFS, Fem, Masc,75,101,101,8,8,1,0,2.556,930,396,830,270
6,1,39, LFS, Masc, Fem,75,18,18,6,2,1,0,2.615,926,739,830,630
6,1,40, LFS, Masc, Fem,75,173,173,6,3,1,0,2.999,1197,710,1130,630
6,1,41, LFS, Masc, Fem,75,140,140,6,9,1,0,4.76,1212,363,1130,270
6,1,42, LFS, Fem, Masc,75,121,121,6,9,1,0,2.443,1225,382,1130,270
6,1,43, LFS, Fem, Masc,75,68,68,8,3,1,0,3.651,1276,725,1130,630
6,1,44, LFS, Masc, Fem,75,26,26,8,1,1,1,4.177,594,739,530,630
6,1,45, LFS, Fem, Masc,75,69,69,6,3,1,0,2.675,1247,711,1130,630
6,1,46, LFS, Fem, Masc,75,138,138,3,8,1,0,2.273,946,354,830,270
6,1,47, LFS, Masc, Fem,75,138,138,3,6,1,0,1.791,1229,553,1130,450
6,1,48, LFS, Fem, Masc,75,131,131,6,7,1,0,2.736,627,393,530,270
6,1,49, LFS, Masc, Fem,75,69,69,8,9,1,0,1.716,1251,396,1130,270
6,1,50, LFS, Fem, Masc,75,63,63,8,4,1,0,2.536,643,549,530,450
6,1,51, LFS, Fem, Masc,75,22,22,3,8,1,0,2.052,868,385,830,270
6,1,52, LFS, Masc, Fem,75,4,4,8,2,1,0,2.466,913,761,830,630
6,1,53, LFS, Fem, Masc,75,123,123,3,8,3,0,1.576,663,564,830,270
6,1,54, LFS, Fem, Masc,75,141,141,6,1,1,1,3.313,651,703,530,630
6,1,55, LFS, Masc, Fem,75,172,172,3,4,1,0,1.581,645,549,530,450
6,1,56, LFS, Masc, Fem,75,92,92,3,6,1,0,1.495,1214,559,1130,450
6,1,57, LFS, Masc, Fem,75,101,101,3,6,1,0,1.532,1230,549,1130,450
6,1,58, LFS, Masc, Fem,75,125,125,3,6,1,0,1.367,1223,529,1130,450
6,1,59, LFS, Fem, Masc,75,12,12,8,2,1,0,2.697,922,706,830,630
6,1,60, LFS, Masc, Fem,75,29,29,8,4,1,0,3.35,666,551,530,450
6,1,61, LFS, Fem, Masc,75,31,31,6,2,1,0,2.233,954,707,830,630
6,1,62, LFS, Masc, Fem,75,130,130,3,4,1,0,2.624,640,588,530,450
6,1,63, LFS, Fem, Masc,75,18,18,3,8,1,0,2.168,916,364,830,270
6,1,64, LFS, Masc, Fem,75,128,128,3,4,1,0,2.403,585,558,530,450
6,1,65, LFS, Masc, Fem,75,33,33,8,7,1,0,2.891,646,374,530,270
6,1,66, LFS, Masc, Fem,75,123,123,3,8,1,0,3.105,904,392,830,270
6,2,67, LFS, Fem, Masc,75,173,173,8,1,1,1,4.647,638,766,530,630
6,2,68, LFS, Masc, Fem,75,173,173,8,8,1,0,2.582,936,373,830,270
6,2,69, LFS, Masc, Fem,75,172,172,8,7,1,0,2.479,672,399,530,270
6,2,70, LFS, Masc, Fem,75,143,143,8,6,1,0,5.333,1204,546,1130,450
6,2,71, LFS, Fem, Masc,75,21,21,8,8,1,0,3.408,959,362,830,270
6,2,72, LFS, Fem, Masc,75,105,105,8,2,1,0,5.721,932,753,830,630
6,2,73, LFS, Fem, Masc,75,63,63,6,7,1,0,2.51,653,394,530,270
6,2,74, LFS, Fem, Masc,75,108,108,3,8,1,0,2.202,906,407,830,270
6,2,75, LFS, Fem, Masc,75,172,172,6,8,1,0,2.107,887,353,830,270
6,2,76, LFS, Masc, Fem,75,41,41,8,8,1,0,4.728,926,355,830,270
6,2,77, LFS, Masc, Fem,75,104,104,8,2,1,0,2.348,950,712,830,630
6,2,78, LFS, Fem, Masc,75,68,68,6,9,1,0,3.038,1266,354,1130,270
6,2,79, LFS, Masc, Fem,75,105,105,6,7,1,0,2.95,623,360,530,270
6,2,80, LFS, Masc, Fem,75,63,63,6,1,1,1,3.105,628,709,530,630
6,2,81, LFS, Masc, Fem,75,68,68,8,1,1,1,3.302,630,706,530,630
6,2,82, LFS, Fem, Masc,75,131,131,6,8,4,0,1.746,618,381,830,270
6,2,83, LFS, Masc, Fem,75,132,132,8,1,1,1,3.899,611,736,530,630
6,2,84, LFS, Fem, Masc,75,117,117,6,8,1,0,2.344,929,397,830,270
6,2,85, LFS, Masc, Fem,75,22,22,6,8,1,0,1.795,910,379,830,270
6,2,86, LFS, Masc, Fem,75,130,130,6,3,1,0,2.068,1228,715,1130,630
6,2,87, LFS, Masc, Fem,75,121,121,3,8,1,0,2.579,952,365,830,270
6,2,88, LFS, Masc, Fem,75,103,103,6,3,1,0,3.389,1220,744,1130,630
6,2,89, LFS, Masc, Fem,75,140,140,6,7,1,0,3.782,607,386,530,270
6,2,90, LFS, Fem, Masc,75,123,123,8,9,1,0,4.487,1247,382,1130,270
6,2,91, LFS, Masc, Fem,75,131,131,3,8,1,0,1.837,862,356,830,270
6,2,92, LFS, Fem, Masc,75,29,29,8,7,1,0,4.572,626,357,530,270
6,2,93, LFS, Masc, Fem,75,101,101,3,4,1,0,2.983,661,540,530,450
6,2,94, LFS, Fem, Masc,75,125,125,3,4,1,0,3.296,633,550,530,450
6,2,95, LFS, Fem, Masc,75,22,22,6,3,1,0,3.397,1224,737,1130,630
6,2,96, LFS, Fem, Masc,75,128,128,8,8,1,0,3.165,922,398,830,270
6,2,97, LFS, Fem, Masc,75,18,18,6,1,1,1,3.215,689,727,530,630
6,2,98, LFS, Masc, Fem,75,4,4,6,8,1,0,1.832,941,390,830,270
6,2,99, LFS, Masc, Fem,75,29,29,3,4,1,0,2.239,604,534,530,450
6,2,100, LFS, Fem, Masc,75,26,26,3,8,1,0,2.903,960,396,830,270
6,2,101, LFS, Fem, Masc,75,121,121,3,6,1,0,1.627,1238,565,1130,450
6,2,102, LFS, Fem, Masc,75,103,103,3,4,1,0,1.827,596,541,530,450
6,2,103, LFS, Masc, Fem,75,138,138,6,7,1,0,2.051,634,384,530,270
6,2,104, LFS, Fem, Masc,75,141,141,3,8,1,0,1.898,902,381,830,270
6,2,105, LFS, Masc, Fem,75,92,92,8,7,1,0,1.727,592,361,530,270
6,2,106, LFS, Masc, Fem,75,69,69,6,1,1,1,2.891,633,714,530,630
6,2,107, LFS, Fem, Masc,75,21,21,8,9,1,0,5.256,1242,390,1130,270
6,2,108, LFS, Fem, Masc,75,101,101,6,9,1,0,2.175,1210,372,1130,270
6,2,109, LFS, Fem, Masc,75,33,33,3,8,1,0,2.433,913,356,830,270
6,2,110, LFS, Fem, Masc,75,69,69,3,6,1,0,1.569,1212,551,1130,450
6,2,111, LFS, Masc, Fem,75,26,26,8,6,1,0,5.915,1207,559,1130,450
6,2,112, LFS, Fem, Masc,75,143,143,3,4,1,0,5.871,653,549,530,450
6,2,113, LFS, Masc, Fem,75,125,125,3,4,1,0,2.245,626,557,530,450
6,2,114, LFS, Fem, Masc,75,4,4,6,7,1,0,2.477,637,389,530,270
6,2,115, LFS, Fem, Masc,75,105,105,6,2,1,0,6.69,940,739,830,630
6,2,116, LFS, Fem, Masc,75,130,130,6,2,1,0,2.104,981,729,830,630
6,2,117, LFS, Masc, Fem,75,141,141,3,4,1,0,2.309,593,568,530,450
6,2,118, LFS, Masc, Fem,75,117,117,6,2,1,0,2.425,946,732,830,630
6,2,119, LFS, Fem, Masc,75,12,12,3,6,1,0,2.09,1183,548,1130,450
6,2,120, LFS, Masc, Fem,75,21,21,6,8,1,0,2.847,919,391,830,270
6,2,121, LFS, Fem, Masc,75,31,31,6,8,1,0,2.126,939,385,830,270
6,2,122, LFS, Fem, Masc,75,92,92,6,9,1,0,1.978,1198,380,1130,270
6,2,123, LFS, Masc, Fem,75,18,18,6,1,1,1,2.364,581,718,530,630
6,2,124, LFS, Fem, Masc,75,138,138,3,6,1,0,1.598,1248,564,1130,450
6,2,125, LFS, Fem, Masc,75,41,41,6,2,1,0,2.535,914,705,830,630
6,2,126, LFS, Masc, Fem,75,12,12,8,4,1,0,2.538,659,555,530,450
6,2,127, LFS, Masc, Fem,75,108,108,3,8,1,0,2.149,891,357,830,270
6,2,128, LFS, Fem, Masc,75,173,173,3,6,1,0,1.72,1234,560,1130,450
6,2,129, LFS, Masc, Fem,75,31,31,8,6,1,0,2.756,1258,530,1130,450
6,2,130, LFS, Fem, Masc,75,104,104,8,7,1,0,1.927,611,350,530,270
6,2,131, LFS, Masc, Fem,75,4,4,6,1,1,1,2.171,565,727,530,630
6,2,132, LFS, Fem, Masc,75,132,132,8,4,1,0,2.797,661,568,530,450
6,3,133, LFS, Fem, Masc,75,140,140,3,4,1,0,2.492,635,588,530,450
6,3,134, LFS, Masc, Fem,75,31,31,8,9,1,0,2.266,1255,376,1130,270
6,3,135, LFS, Masc, Fem,75,143,143,3,8,1,0,3.223,951,385,830,270
6,3,136, LFS, Fem, Masc,75,104,104,8,6,1,0,3.896,1233,575,1130,450
6,3,137, LFS, Masc, Fem,75,68,68,8,1,1,1,3.157,644,715,530,630
6,3,138, LFS, Fem, Masc,75,172,172,6,9,1,0,2.136,1253,374,1130,270
6,3,139, LFS, Masc, Fem,75,172,172,6,3,1,0,4.075,1267,752,1130,630
6,3,140, LFS, Fem, Masc,75,101,101,3,4,1,0,2.089,633,565,530,450
6,3,141, LFS, Fem, Masc,75,63,63,6,2,1,0,2.015,967,709,830,630
6,3,142, LFS, Masc, Fem,75,128,128,3,4,1,0,2.223,574,564,530,450
6,3,143, LFS, Fem, Masc,75,121,121,8,1,1,1,3.735,617,706,530,630
6,3,144, LFS, Fem, Masc,75,143,143,8,3,1,0,9.938,1271,743,1130,630
6,3,145, LFS, Fem, Masc,75,18,18,6,9,1,0,1.686,1254,349,1130,270
6,3,146, LFS, Masc, Fem,75,108,108,6,1,1,1,3.171,604,741,530,630
6,3,147, LFS, Fem, Masc,75,31,31,8,2,1,0,2.613,919,748,830,630
6,3,148, LFS, Fem, Masc,75,68,68,8,3,1,0,3.309,1220,712,1130,630
6,3,149, LFS, Fem, Masc,75,12,12,3,4,1,0,1.834,648,564,530,450
6,3,150, LFS, Fem, Masc,75,4,4,8,3,1,0,1.954,1228,728,1130,630
6,3,151, LFS, Masc, Fem,75,123,123,8,6,1,0,6.396,1218,545,1130,450
6,3,152, LFS, Masc, Fem,75,12,12,3,4,1,0,1.861,639,567,530,450
6,3,153, LFS, Masc, Fem,75,69,69,8,1,1,1,2.684,597,776,530,630
6,3,154, LFS, Masc, Fem,75,131,131,8,4,1,0,2.729,636,566,530,450
6,3,155, LFS, Masc, Fem,75,18,18,8,1,1,1,3.365,597,706,530,630
6,3,156, LFS, Fem, Masc,75,138,138,6,3,1,0,2.767,1239,744,1130,630
6,3,157, LFS, Fem, Masc,75,131,131,3,6,1,0,1.809,1183,569,1130,450
6,3,158, LFS, Masc, Fem,75,41,41,3,4,1,0,2.306,617,561,530,450
6,3,159, LFS, Masc, Fem,75,121,121,6,3,1,0,2.078,1254,723,1130,630
6,3,160, LFS, Masc, Fem,75,141,141,3,8,1,0,2.525,903,391,830,270
6,3,161, LFS, Fem, Masc,75,123,123,3,4,1,0,1.888,617,545,530,450
6,3,162, LFS, Fem, Masc,75,132,132,6,3,1,0,2.414,1223,756,1130,630
6,3,163, LFS, Masc, Fem,75,22,22,6,9,1,0,1.638,1233,394,1130,270
6,3,164, LFS, Masc, Fem,75,140,140,3,4,1,0,2.653,629,574,530,450
6,3,165, LFS, Fem, Masc,75,140,140,8,1,1,1,4.34,606,736,530,630
6,3,166, LFS, Fem, Masc,75,105,105,3,4,1,0,2.08,649,572,530,450
6,3,167, LFS, Fem, Masc,75,26,26,3,6,1,0,1.997,1285,580,1130,450
6,3,168, LFS, Masc, Fem,75,104,104,8,4,1,0,2.966,632,540,530,450
6,3,169, LFS, Fem, Masc,75,125,125,8,4,1,0,3.136,632,567,530,450
6,3,170, LFS, Masc, Fem,75,105,105,8,9,1,0,3.707,1217,397,1130,270
6,3,171, LFS, Fem, Masc,75,130,130,8,6,1,0,2.496,1221,537,1130,450
6,3,172, LFS, Fem, Masc,75,103,103,3,8,1,0,2.405,953,407,830,270
6,3,173, LFS, Masc, Fem,75,103,103,3,6,1,0,1.718,1235,548,1130,450
6,3,174, LFS, Masc, Fem,75,101,101,6,1,1,1,3.002,608,713,530,630
6,3,175, LFS, Fem, Masc,75,33,33,3,6,1,0,2.378,1178,571,1130,450
6,3,176, LFS, Masc, Fem,75,33,33,3,4,1,0,1.98,627,565,530,450
6,3,177, LFS, Masc, Fem,75,21,21,3,8,1,0,2.174,912,388,830,270
6,3,178, LFS, Masc, Fem,75,130,130,8,1,1,1,2.6,608,761,530,630
6,3,179, LFS, Fem, Masc,75,29,29,8,2,1,0,5.592,952,727,830,630
6,3,180, LFS, Masc, Fem,75,125,125,6,9,1,0,2.89,1195,376,1130,270
6,3,181, LFS, Masc, Fem,75,173,173,8,8,1,0,5.711,920,348,830,270
6,3,182, LFS, Masc, Fem,75,29,29,8,2,1,0,2.956,968,700,830,630
6,3,183, LFS, Masc, Fem,75,138,138,3,8,3,0,1.999,599,554,830,270
6,3,184, LFS, Fem, Masc,75,41,41,6,8,1,0,4.774,906,389,830,270
6,3,185, LFS, Fem, Masc,75,173,173,3,4,1,0,2.12,616,543,530,450
6,3,186, LFS, Fem, Masc,75,117,117,8,4,1,0,2.676,638,556,530,450
6,3,187, LFS, Fem, Masc,75,128,128,3,6,1,0,1.842,1248,556,1130,450
6,3,188, LFS, Masc, Fem,75,92,92,6,8,1,0,3.305,965,361,830,270
6,3,189, LFS, Fem, Masc,75,141,141,6,9,1,0,2.637,1243,358,1130,270
6,3,190, LFS, Masc, Fem,75,26,26,3,4,1,0,2.229,619,563,530,450
6,3,191, LFS, Masc, Fem,75,63,63,6,3,1,0,2.933,1237,740,1130,630
6,3,192, LFS, Fem, Masc,75,92,92,3,6,1,0,1.872,1235,547,1130,450
6,3,193, LFS, Fem, Masc,75,108,108,8,6,1,0,2.43,1204,551,1130,450
6,3,194, LFS, Masc, Fem,75,132,132,6,8,1,0,2.67,973,384,830,270
6,3,195, LFS, Fem, Masc,75,21,21,8,7,1,0,2.932,611,387,530,270
6,3,196, LFS, Fem, Masc,75,22,22,3,6,1,0,1.607,1263,543,1130,450
6,3,197, LFS, Masc, Fem,75,117,117,3,6,1,0,1.464,1191,560,1130,450
6,3,198, LFS, Fem, Masc,75,69,69,6,1,1,1,2.062,642,737,530,630
7,1,1, LFS, Masc, Fem,75,141,141,3,4,1,0,1.991,649,545,530,450
7,1,2, LFS, Fem, Masc,75,138,138,3,4,1,0,2.873,626,534,530,450
7,1,3, LFS, Masc, Fem,75,121,121,3,8,1,0,2.855,949,381,830,270
7,1,4, LFS, Fem, Masc,75,63,63,6,2,1,0,2.877,908,757,830,630
7,1,5, LFS, Masc, Fem,75,105,105,3,8,1,0,2.811,959,364,830,270
7,1,6, LFS, Masc, Fem,75,4,4,6,9,1,0,2.755,1265,385,1130,270
7,1,7, LFS, Fem, Masc,75,29,29,8,2,1,0,5.181,949,776,830,630
7,1,8, LFS, Fem, Masc,75,68,68,8,1,1,1,2.831,665,724,530,630
7,1,9, LFS, Fem, Masc,75,130,130,3,6,1,0,2.038,1233,545,1130,450
7,1,10, LFS, Masc, Fem,75,69,69,3,6,1,0,3.734,1215,562,1130,450
7,1,11, LFS, Fem, Masc,75,4,4,8,9,1,0,3.121,1268,370,1130,270
7,1,12, LFS, Fem, Masc,75,69,69,3,4,1,0,2.277,611,573,530,450
7,1,13, LFS, Fem, Masc,75,12,12,6,7,1,0,3.739,648,405,530,270
7,1,14, LFS, Fem, Masc,75,108,108,8,6,1,0,2.583,1246,545,1130,450
7,1,15, LFS, Masc, Fem,75,131,131,8,1,1,1,6.192,684,735,530,630
7,1,16, LFS, Fem, Masc,75,21,21,3,4,1,0,2.946,624,566,530,450
7,1,17, LFS, Fem, Masc,75,128,128,3,4,1,0,2.596,630,566,530,450
7,1,18, LFS, Masc, Fem,75,29,29,8,6,1,0,3.309,1250,571,1130,450
7,1,19, LFS, Masc, Fem,75,132,132,3,4,1,0,3.202,645,564,530,450
7,1,20, LFS, Fem, Masc,75,125,125,3,4,1,0,2.571,612,546,530,450
7,1,21, LFS, Masc, Fem,75,172,172,8,8,1,0,3.597,954,392,830,270
7,1,22, LFS, Fem, Masc,75,117,117,8,1,1,1,4.238,611,743,530,630
7,1,23, LFS, Fem, Masc,75,103,103,8,7,1,0,3.997,640,352,530,270
7,1,24, LFS, Fem, Masc,75,92,92,6,2,1,0,3.222,937,724,830,630
7,1,25, LFS, Masc, Fem,75,108,108,6,9,1,0,1.862,1264,374,1130,270
7,1,26, LFS, Masc, Fem,75,128,128,6,8,1,0,3.309,956,383,830,270
7,1,27, LFS, Fem, Masc,75,132,132,3,6,1,0,2.265,1248,562,1130,450
7,1,28, LFS, Masc, Fem,75,63,63,3,8,1,0,2.087,889,364,830,270
7,1,29, LFS, Masc, Fem,75,92,92,3,6,1,0,2.133,1215,554,1130,450
7,1,30, LFS, Masc, Fem,75,138,138,3,6,1,0,2.672,1210,564,1130,450
7,1,31, LFS, Masc, Fem,75,18,18,8,1,1,1,2.75,617,746,530,630
7,1,32, LFS, Fem, Masc,75,33,33,6,3,1,0,2.873,1249,703,1130,630
7,1,33, LFS, Masc, Fem,75,140,140,3,6,1,0,1.823,1241,531,1130,450
7,1,34, LFS, Masc, Fem,75,173,173,6,2,1,0,1.927,929,733,830,630
7,1,35, LFS, Masc, Fem,75,143,143,6,9,1,0,2.611,1209,403,1130,270
7,1,36, LFS, Masc, Fem,75,22,22,8,2,1,0,2.204,959,716,830,630
7,1,37, LFS, Masc, Fem,75,12,12,3,8,1,0,1.517,909,387,830,270
7,1,38, LFS, Fem, Masc,75,31,31,3,6,1,0,2.009,1252,576,1130,450
7,1,39, LFS, Masc, Fem,75,41,41,6,7,1,0,2.809,618,355,530,270
7,1,40, LFS, Fem, Masc,75,172,172,6,3,1,0,3.874,1239,735,1130,630
7,1,41, LFS, Fem, Masc,75,105,105,6,9,1,0,2.536,1244,401,1130,270
7,1,42, LFS, Fem, Masc,75,143,143,8,2,1,0,4.204,923,709,830,630
7,1,43, LFS, Fem, Masc,75,101,101,6,9,1,0,1.54,1252,369,1130,270
7,1,44, LFS, Fem, Masc,75,104,104,3,6,1,0,1.784,1234,573,1130,450
7,1,45, LFS, Fem, Masc,75,141,141,3,4,1,0,2.697,634,555,530,450
7,1,46, LFS, Masc, Fem,75,101,101,6,2,1,0,5.086,929,729,830,630
7,1,47, LFS, Masc, Fem,75,130,130,3,4,1,0,1.756,649,538,530,450
7,1,48, LFS, Masc, Fem,75,125,125,6,1,1,1,4.222,652,718,530,630
7,1,49, LFS, Fem, Masc,75,26,26,8,1,1,1,4.686,632,726,530,630
7,1,50, LFS, Masc, Fem,75,21,21,6,7,1,0,2.588,643,348,530,270
7,1,51, LFS, Fem, Masc,75,18,18,8,6,1,0,4.629,1252,546,1130,450
7,1,52, LFS, Fem, Masc,75,121,121,3,6,1,0,2.509,1231,553,1130,450
7,1,53, LFS, Masc, Fem,75,33,33,8,7,1,0,4.209,667,346,530,270
7,1,54, LFS, Fem, Masc,75,173,173,8,4,1,0,3.162,680,577,530,450
7,1,55, LFS, Fem, Masc,75,123,123,3,6,1,0,10.069,1186,549,1130,450
7,1,56, LFS, Masc, Fem,75,103,103,6,8,1,0,2.451,962,418,830,270
7,1,57, LFS, Fem, Masc,75,41,41,3,8,1,0,1.986,919,335,830,270
7,1,58, LFS, Masc, Fem,75,31,31,8,8,1,0,3.747,910,330,830,270
7,1,59, LFS, Masc, Fem,75,123,123,3,6,1,0,3.222,1255,555,1130,450
7,1,60, LFS, Masc, Fem,75,26,26,8,7,6,0,12.478,922,729,530,270
7,1,61, LFS, Masc, Fem,75,68,68,6,9,1,0,3.273,1259,361,1130,270
7,1,62, LFS, Masc, Fem,75,104,104,8,1,1,1,4.823,621,748,530,630
7,1,63, LFS, Fem, Masc,75,140,140,6,1,1,1,5.615,670,755,530,630
7,1,64, LFS, Masc, Fem,75,117,117,8,4,1,0,3.167,623,533,530,450
7,1,65, LFS, Masc, Fem,75,130,130,8,2,1,0,2.513,974,759,830,630
7,1,66, LFS, Fem, Masc,75,131,131,3,8,1,0,2.693,965,380,830,270
7,2,67, LFS, Masc, Fem,75,29,29,8,7,1,0,3.126,653,379,530,270
7,2,68, LFS, Fem, Masc,75,22,22,8,7,1,0,4.691,638,363,530,270
7,2,69, LFS, Fem, Masc,75,140,140,3,4,1,0,2.024,611,578,530,450
7,2,70, LFS, Fem, Masc,75,92,92,6,8,1,0,2.624,953,369,830,270
7,2,71, LFS, Fem, Masc,75,29,29,3,4,1,0,2.264,622,568,530,450
7,2,72, LFS, Fem, Masc,75,4,4,3,8,1,0,1.95,943,341,830,270
7,2,73, LFS, Masc, Fem,75,21,21,8,9,1,0,3.241,1234,403,1130,270
7,2,74, LFS, Fem, Masc,75,69,69,3,8,1,0,3.384,900,392,830,270
7,2,75, LFS, Masc, Fem,75,104,104,3,6,1,0,2.666,1239,563,1130,450
7,2,76, LFS, Masc, Fem,75,92,92,6,8,1,0,4.072,935,409,830,270
7,2,77, LFS, Masc, Fem,75,138,138,6,2,1,0,1.486,959,767,830,630
7,2,78, LFS, Fem, Masc,75,12,12,6,3,1,0,4.523,1241,745,1130,630
7,2,79, LFS, Fem, Masc,75,22,22,8,9,1,0,4.392,1270,360,1130,270
7,2,80, LFS, Fem, Masc,75,117,117,8,3,1,0,2.913,1232,732,1130,630
7,2,81, LFS, Masc, Fem,75,18,18,6,8,1,0,2.085,937,401,830,270
7,2,82, LFS, Masc, Fem,75,123,123,8,4,1,0,8.322,619,538,530,450
7,2,83, LFS, Masc, Fem,75,131,131,3,4,1,0,1.959,668,577,530,450
7,2,84, LFS, Masc, Fem,75,103,103,6,8,1,0,2.185,942,364,830,270
7,2,85, LFS, Fem, Masc,75,128,128,8,1,1,1,3.819,673,741,530,630
7,2,86, LFS, Fem, Masc,75,101,101,8,2,1,0,3.939,963,736,830,630
7,2,87, LFS, Masc, Fem,75,117,117,8,1,1,1,3.518,604,745,530,630
7,2,88, LFS, Masc, Fem,75,141,141,6,1,1,1,2.882,629,717,530,630
7,2,89, LFS, Masc, Fem,75,173,173,3,4,1,0,1.736,649,534,530,450
7,2,90, LFS, Fem, Masc,75,141,141,8,9,1,0,4.371,1270,380,1130,270
7,2,91, LFS, Masc, Fem,75,128,128,3,6,1,0,2.485,1227,564,1130,450
7,2,92, LFS, Masc, Fem,75,31,31,6,3,1,0,3.667,1247,729,1130,630
7,2,93, LFS, Masc, Fem,75,105,105,8,3,1,0,4.481,1242,728,1130,630
7,2,94, LFS, Fem, Masc,75,125,125,6,1,1,1,3.486,642,740,530,630
7,2,95, LFS, Fem, Masc,75,21,21,3,8,1,0,2.532,957,379,830,270
7,2,96, LFS, Fem, Masc,75,68,68,8,8,1,0,4.591,960,371,830,270
7,2,97, LFS, Fem, Masc,75,105,105,6,8,1,0,1.361,941,368,830,270
7,2,98, LFS, Masc, Fem,75,125,125,6,7,1,0,4.619,592,371,530,270
7,2,99, LFS, Fem, Masc,75,123,123,8,3,1,0,7.851,1251,767,1130,630
7,2,100, LFS, Masc, Fem,75,69,69,6,9,1,0,2.138,1242,384,1130,270
7,2,101, LFS, Fem, Masc,75,172,172,6,8,1,0,3.262,947,338,830,270
7,2,102, LFS, Masc, Fem,75,140,140,8,2,1,0,2.156,963,747,830,630
7,2,103, LFS, Fem, Masc,75,31,31,3,8,1,0,3.119,949,402,830,270
7,2,104, LFS, Masc, Fem,75,12,12,8,2,1,0,1.947,933,722,830,630
7,2,105, LFS, Masc, Fem,75,121,121,6,3,1,0,3.046,1256,737,1130,630
7,2,106, LFS, Fem, Masc,75,103,103,6,7,1,0,3.421,588,367,530,270
7,2,107, LFS, Masc, Fem,75,172,172,3,6,1,0,2.909,1270,568,1130,450
7,2,108, LFS, Fem, Masc,75,33,33,3,8,1,0,2.977,968,353,830,270
7,2,109, LFS, Masc, Fem,75,101,101,3,8,1,0,3.388,918,344,830,270
7,2,110, LFS, Fem, Masc,75,143,143,8,2,1,0,3.253,958,718,830,630
7,2,111, LFS, Masc, Fem,75,68,68,8,7,1,0,2.54,659,350,530,270
7,2,112, LFS, Masc, Fem,75,143,143,3,4,1,0,3.055,654,564,530,450
7,2,113, LFS, Masc, Fem,75,63,63,3,6,1,0,2.07,1270,564,1130,450
7,2,114, LFS, Masc, Fem,75,4,4,8,1,1,1,2.18,640,743,530,630
7,2,115, LFS, Fem, Masc,75,131,131,6,2,1,0,4.733,972,762,830,630
7,2,116, LFS, Fem, Masc,75,130,130,8,6,1,0,2.993,1231,551,1130,450
7,2,117, LFS, Fem, Masc,75,108,108,6,9,1,0,5.586,1254,381,1130,270
7,2,118, LFS, Masc, Fem,75,41,41,6,1,1,1,5.772,672,713,530,630
7,2,119, LFS, Masc, Fem,75,33,33,3,4,1,0,2.286,641,536,530,450
7,2,120, LFS, Fem, Masc,75,104,104,8,7,1,0,4.035,629,362,530,270
7,2,121, LFS, Masc, Fem,75,108,108,6,1,1,1,3.283,644,725,530,630
7,2,122, LFS, Masc, Fem,75,22,22,6,8,1,0,3.016,939,398,830,270
7,2,123, LFS, Masc, Fem,75,26,26,8,9,1,0,4.576,1250,370,1130,270
7,2,124, LFS, Fem, Masc,75,173,173,6,9,1,0,5.69,1225,395,1130,270
7,2,125, LFS, Masc, Fem,75,132,132,8,6,1,0,3.584,1249,565,1130,450
7,2,126, LFS, Fem, Masc,75,26,26,8,7,1,0,5.025,602,369,530,270
7,2,127, LFS, Masc, Fem,75,12,12,8,3,1,0,5.274,1270,707,1130,630
7,2,128, LFS, Masc, Fem,75,173,173,8,1,1,1,3.064,655,719,530,630
7,2,129, LFS, Fem, Masc,75,63,63,6,2,1,0,2.518,950,740,830,630
7,2,130, LFS, Masc, Fem,75,108,108,6,7,1,0,3.162,643,377,530,270
7,2,131, LFS, Fem, Masc,75,41,41,3,8,1,0,2.716,984,372,830,270
7,2,132, LFS, Masc, Fem,75,4,4,6,8,1,0,3.468,953,402,830,270
7,3,133, LFS, Fem, Masc,75,121,121,3,8,1,0,1.628,971,365,830,270
7,3,134, LFS, Fem, Masc,75,138,138,6,3,1,0,3.236,1202,746,1130,630
7,3,135, LFS, Masc, Fem,75,104,104,3,8,1,0,2.427,931,368,830,270
7,3,136, LFS, Fem, Masc,75,18,18,6,1,1,1,1.859,635,743,530,630
7,3,137, LFS, Masc, Fem,75,33,33,3,6,1,0,1.658,1270,519,1130,450
7,3,138, LFS, Masc, Fem,75,132,132,3,8,1,0,1.425,895,363,830,270
7,3,139, LFS, Masc, Fem,75,140,140,6,9,1,0,1.721,1195,407,1130,270
7,3,140, LFS, Fem, Masc,75,132,132,3,4,1,0,1.941,622,592,530,450
7,3,141, LFS, Fem, Masc,75,68,68,3,8,1,0,2.024,958,420,830,270
7,3,142, LFS, Fem, Masc,75,4,4,3,4,1,0,2.081,602,560,530,450
7,3,143, LFS, Fem, Masc,75,63,63,6,3,1,0,1.622,1252,729,1130,630
7,3,144, LFS, Fem, Masc,75,92,92,8,7,1,0,2.974,661,381,530,270
7,3,145, LFS, Fem, Masc,75,69,69,3,6,1,0,4.816,1194,583,1130,450
7,3,146, LFS, Masc, Fem,75,131,131,3,6,1,0,2.336,1250,562,1130,450
7,3,147, LFS, Masc, Fem,75,125,125,3,8,1,0,2.819,949,382,830,270
7,3,148, LFS, Masc, Fem,75,130,130,8,3,1,0,4.084,1253,764,1130,630
7,3,149, LFS, Masc, Fem,75,143,143,6,8,1,0,5.737,926,390,830,270
7,3,150, LFS, Masc, Fem,75,123,123,3,8,1,0,6.197,939,413,830,270
7,3,151, LFS, Masc, Fem,75,63,63,3,4,1,0,2.669,671,564,530,450
7,3,152, LFS, Fem, Masc,75,125,125,8,8,1,0,2.931,963,351,830,270
7,3,153, LFS, Fem, Masc,75,31,31,3,6,1,0,1.975,1240,583,1130,450
7,3,154, LFS, Fem, Masc,75,12,12,8,8,1,0,4.097,927,390,830,270
7,3,155, LFS, Fem, Masc,75,138,138,6,3,1,0,2.286,1227,739,1130,630
7,3,156, LFS, Fem, Masc,75,131,131,3,8,1,0,1.595,932,386,830,270
7,3,157, LFS, Masc, Fem,75,22,22,6,9,1,0,2.317,1239,369,1130,270
7,3,158, LFS, Masc, Fem,75,18,18,3,4,1,0,2.201,591,584,530,450
7,3,159, LFS, Fem, Masc,75,21,21,6,1,1,1,3.297,664,749,530,630
7,3,160, LFS, Masc, Fem,75,41,41,8,9,1,0,3.39,1235,399,1130,270
7,3,161, LFS, Fem, Masc,75,140,140,3,6,1,0,1.832,1221,563,1130,450
7,3,162, LFS, Masc, Fem,75,21,21,8,1,1,1,2.551,674,716,530,630
7,3,163, LFS, Fem, Masc,75,103,103,6,9,1,0,2.81,1227,395,1130,270
7,3,164, LFS, Fem, Masc,75,128,128,6,3,1,0,2.355,1299,724,1130,630
7,3,165, LFS, Fem, Masc,75,121,121,8,1,1,1,3.669,639,732,530,630
7,3,166, LFS, Fem, Masc,75,173,173,6,2,1,0,1.603,922,741,830,630
7,3,167, LFS, Fem, Masc,75,172,172,8,4,1,0,4.524,639,549,530,450
7,3,168, LFS, Masc, Fem,75,117,117,8,8,1,0,1.968,956,343,830,270
7,3,169, LFS, Fem, Masc,75,26,26,6,9,1,0,2.41,1262,394,1130,270
7,3,170, LFS, Masc, Fem,75,69,69,3,4,1,0,2.803,624,576,530,450
7,3,171, LFS, Masc, Fem,75,172,172,6,7,1,0,3.316,648,356,530,270
7,3,172, LFS, Masc, Fem,75,68,68,3,8,1,0,2.376,959,380,830,270
7,3,173, LFS, Fem, Masc,75,41,41,8,2,1,0,4.162,939,749,830,630
7,3,174, LFS, Fem, Masc,75,105,105,3,6,1,0,1.629,1253,537,1130,450
7,3,175, LFS, Fem, Masc,75,108,108,8,3,1,0,6.053,1259,750,1130,630
7,3,176, LFS, Masc, Fem,75,26,26,3,6,1,0,4.243,1240,548,1130,450
7,3,177, LFS, Masc, Fem,75,121,121,3,4,1,0,2.506,642,535,530,450
7,3,178, LFS, Masc, Fem,75,105,105,8,4,1,0,2.855,697,551,530,450
7,3,179, LFS, Fem, Masc,75,101,101,8,6,1,0,2.813,1274,544,1130,450
7,3,180, LFS, Masc, Fem,75,92,92,6,8,1,0,2.413,932,368,830,270
7,3,181, LFS, Masc, Fem,75,103,103,8,8,1,0,3.485,936,382,830,270
7,3,182, LFS, Masc, Fem,75,138,138,8,6,1,0,1.627,1267,568,1130,450
7,3,183, LFS, Fem, Masc,75,29,29,3,4,1,0,2.083,655,527,530,450
7,3,184, LFS, Fem, Masc,75,143,143,6,1,1,1,4.064,660,713,530,630
7,3,185, LFS, Fem, Masc,75,18,18,6,9,1,0,2.542,1251,364,1130,270
7,3,186, LFS, Fem, Masc,75,123,123,6,1,1,1,5.865,644,716,530,630
7,3,187, LFS, Masc, Fem,75,31,31,8,7,1,0,1.951,630,368,530,270
7,3,188, LFS, Fem, Masc,75,141,141,6,7,1,0,3.09,645,405,530,270
7,3,189, LFS, Masc, Fem,75,29,29,6,1,1,1,3.615,618,721,530,630
7,3,190, LFS, Masc, Fem,75,128,128,6,7,1,0,2.487,609,366,530,270
7,3,191, LFS, Fem, Masc,75,33,33,3,8,1,0,1.933,927,400,830,270
7,3,192, LFS, Fem, Masc,75,104,104,8,2,1,0,4.664,972,713,830,630
7,3,193, LFS, Masc, Fem,75,101,101,6,9,1,0,3.087,1273,396,1130,270
7,3,194, LFS, Fem, Masc,75,132,132,6,7,1,0,3.276,621,362,530,270
7,3,195, LFS, Fem, Masc,75,117,117,8,7,1,0,3.69,635,367,530,270
7,3,196, LFS, Fem, Masc,75,22,22,6,2,1,0,4.231,967,757,830,630
7,3,197, LFS, Fem, Masc,75,130,130,8,7,1,0,2.823,679,367,530,270
7,3,198, LFS, Masc, Fem,75,141,141,8,1,1,1,4.703,652,737,530,630
8,1,1, LFS, Fem, Masc,75,22,22,8,8,1,0,2.236,906,413,830,270
8,1,2, LFS, Fem, Masc,75,123,123,3,6,2,0,1.451,576,561,1130,450
8,1,3, LFS, Fem, Masc,75,121,121,6,7,4,0,1.833,1260,355,530,270
8,1,4, LFS, Fem, Masc,75,12,12,8,1,1,1,3.166,637,726,530,630
8,1,5, LFS, Masc, Fem,75,63,63,8,9,8,0,2.264,613,400,1130,270
8,1,6, LFS, Masc, Fem,75,22,22,6,8,1,0,2.233,934,399,830,270
8,1,7, LFS, Masc, Fem,75,105,105,8,3,1,0,1.929,1262,693,1130,630
8,1,8, LFS, Masc, Fem,75,173,173,3,4,1,0,1.828,635,538,530,450
8,1,9, LFS, Fem, Masc,75,101,101,8,9,7,0,4.476,649,423,1130,270
8,1,10, LFS, Fem, Masc,75,130,130,6,2,1,0,2.382,957,722,830,630
8,1,11, LFS, Fem, Masc,75,29,29,3,8,1,0,1.976,923,384,830,270
8,1,12, LFS, Fem, Masc,75,132,132,8,1,1,1,2.634,593,710,530,630
8,1,13, LFS, Fem, Masc,75,31,31,8,8,4,0,1.713,627,338,830,270
8,1,14, LFS, Masc, Fem,75,130,130,3,4,1,0,1.964,617,561,530,450
8,1,15, LFS, Masc, Fem,75,21,21,6,8,1,0,2.141,934,365,830,270
8,1,16, LFS, Fem, Masc,75,138,138,8,8,1,0,3.153,883,367,830,270
8,1,17, LFS, Fem, Masc,75,103,103,3,8,1,0,2.675,940,412,830,270
8,1,18, LFS, Fem, Masc,75,104,104,3,8,1,0,2.73,914,389,830,270
8,1,19, LFS, Masc, Fem,75,12,12,6,7,1,0,2.221,618,345,530,270
8,1,20, LFS, Masc, Fem,75,125,125,8,2,1,0,2.157,948,740,830,630
8,1,21, LFS, Fem, Masc,75,173,173,6,9,4,0,1.256,921,391,1130,270
8,1,22, LFS, Masc, Fem,75,68,68,6,3,1,0,2.26,1257,731,1130,630
8,1,23, LFS, Fem, Masc,75,131,131,8,3,7,0,3.515,639,525,1130,630
8,1,24, LFS, Masc, Fem,75,138,138,3,6,1,0,1.595,1211,550,1130,450
8,1,25, LFS, Masc, Fem,75,4,4,6,1,1,1,3.781,630,715,530,630
8,1,26, LFS, Masc, Fem,75,108,108,8,9,5,0,2.87,930,705,1130,270
8,1,27, LFS, Fem, Masc,75,26,26,3,8,1,0,1.57,947,392,830,270
8,1,28, LFS, Masc, Fem,75,33,33,3,6,1,0,2.644,1246,570,1130,450
8,1,29, LFS, Fem, Masc,75,140,140,6,3,1,0,4.331,1219,708,1130,630
8,1,30, LFS, Masc, Fem,75,128,128,3,8,1,0,3.654,948,356,830,270
8,1,31, LFS, Masc, Fem,75,143,143,3,8,1,0,2.229,960,410,830,270
8,1,32, LFS, Fem, Masc,75,117,117,3,8,1,0,2.149,896,386,830,270
8,1,33, LFS, Masc, Fem,75,104,104,3,8,2,0,2.143,616,543,830,270
8,1,34, LFS, Fem, Masc,75,68,68,3,6,1,0,2.459,1209,538,1130,450
8,1,35, LFS, Masc, Fem,75,172,172,8,1,3,0,2.865,1219,580,530,630
8,1,36, LFS, Fem, Masc,75,105,105,6,9,1,0,4.758,1247,373,1130,270
8,1,37, LFS, Masc, Fem,75,29,29,8,4,1,0,3.576,660,542,530,450
8,1,38, LFS, Masc, Fem,75,69,69,3,8,1,0,2.29,930,374,830,270
8,1,39, LFS, Fem, Masc,75,33,33,8,4,1,0,3.664,640,570,530,450
8,1,40, LFS, Masc, Fem,75,121,121,6,3,1,0,1.75,1226,732,1130,630
8,1,41, LFS, Fem, Masc,75,108,108,6,8,4,0,2.729,1199,719,830,270
8,1,42, LFS, Masc, Fem,75,132,132,8,9,4,0,2.755,1188,723,1130,270
8,1,43, LFS, Fem, Masc,75,4,4,3,8,1,0,3.084,931,403,830,270
8,1,44, LFS, Masc, Fem,75,18,18,6,9,1,0,2.745,1188,367,1130,270
8,1,45, LFS, Fem, Masc,75,21,21,8,1,1,1,2.837,611,715,530,630
8,1,46, LFS, Masc, Fem,75,131,131,8,4,1,0,2.876,656,542,530,450
8,1,47, LFS, Fem, Masc,75,18,18,3,6,1,0,1.866,1226,549,1130,450
8,1,48, LFS, Fem, Masc,75,69,69,3,6,3,0,3.464,931,403,1130,450
8,1,49, LFS, Fem, Masc,75,141,141,6,2,1,0,2.597,918,738,830,630
8,1,50, LFS, Fem, Masc,75,92,92,8,3,1,0,3.461,1237,701,1130,630
8,1,51, LFS, Masc, Fem,75,92,92,6,8,6,0,3.1,1223,341,830,270
8,1,52, LFS, Fem, Masc,75,63,63,3,4,1,0,2.086,609,614,530,450
8,1,53, LFS, Masc, Fem,75,26,26,3,6,1,0,1.603,1250,521,1130,450
8,1,54, LFS, Fem, Masc,75,143,143,6,1,5,0,4.9,967,726,530,630
8,1,55, LFS, Fem, Masc,75,41,41,8,6,1,0,4.566,1236,589,1130,450
8,1,56, LFS, Fem, Masc,75,125,125,3,8,1,0,2.776,928,393,830,270
8,1,57, LFS, Fem, Masc,75,172,172,3,8,1,0,1.626,906,388,830,270
8,1,58, LFS, Masc, Fem,75,140,140,6,9,1,0,2.914,1223,377,1130,270
8,1,59, LFS, Masc, Fem,75,117,117,3,4,1,0,2.503,674,533,530,450
8,1,60, LFS, Masc, Fem,75,31,31,3,8,1,0,1.972,947,387,830,270
8,1,61, LFS, Masc, Fem,75,123,123,3,8,1,0,2.206,938,388,830,270
8,1,62, LFS, Fem, Masc,75,128,128,3,4,1,0,3.598,631,546,530,450
8,1,63, LFS, Fem, Masc,75,12,12,3,8,1,0,1.951,916,390,830,270
8,1,64, LFS, Masc, Fem,75,41,41,6,7,1,0,3.746,612,386,530,270
8,1,65, LFS, Masc, Fem,75,103,103,8,9,3,0,3.085,642,723,1130,270
8,1,66, LFS, Masc, Fem,75,101,101,8,9,1,0,2.777,1220,354,1130,270
8,2,67, LFS, Masc, Fem,75,141,141,8,2,1,0,2.516,971,720,830,630
8,2,68, LFS, Fem, Masc,75,143,143,3,8,3,0,3.193,609,533,830,270
8,2,69, LFS, Fem, Masc,75,26,26,3,4,1,0,1.704,636,512,530,450
8,2,70, LFS, Masc, Fem,75,172,172,6,8,1,0,2.709,923,342,830,270
8,2,71, LFS, Fem, Masc,75,69,69,8,7,1,0,2.17,641,357,530,270
8,2,72, LFS, Fem, Masc,75,123,123,6,8,1,0,3.724,943,356,830,270
8,2,73, LFS, Masc, Fem,75,141,141,8,7,1,0,2.592,648,390,530,270
8,2,74, LFS, Masc, Fem,75,26,26,6,1,1,1,3.121,671,733,530,630
8,2,75, LFS, Masc, Fem,75,68,68,3,4,1,0,1.326,583,577,530,450
8,2,76, LFS, Masc, Fem,75,130,130,6,2,1,0,1.722,963,725,830,630
8,2,77, LFS, Masc, Fem,75,121,121,6,7,1,0,2.413,622,400,530,270
8,2,78, LFS, Fem, Masc,75,131,131,8,9,1,0,3.59,1254,372,1130,270
8,2,79, LFS, Masc, Fem,75,18,18,3,4,1,0,1.479,596,547,530,450
8,2,80, LFS, Masc, Fem,75,117,117,6,9,1,0,1.82,1284,371,1130,270
8,2,81, LFS, Fem, Masc,75,173,173,6,3,1,0,3.229,1219,723,1130,630
8,2,82, LFS, Masc, Fem,75,105,105,3,4,1,0,2.565,629,537,530,450
8,2,83, LFS, Masc, Fem,75,103,103,3,4,1,0,1.983,659,538,530,450
8,2,84, LFS, Masc, Fem,75,138,138,6,9,1,0,3.76,1275,372,1130,270
8,2,85, LFS, Masc, Fem,75,173,173,8,9,1,0,1.651,1260,369,1130,270
8,2,86, LFS, Masc, Fem,75,123,123,8,9,1,0,3.49,1245,327,1130,270
8,2,87, LFS, Masc, Fem,75,128,128,3,8,1,0,1.855,921,417,830,270
8,2,88, LFS, Fem, Masc,75,92,92,3,6,1,0,2.222,1202,543,1130,450
8,2,89, LFS, Masc, Fem,75,131,131,8,4,1,0,4.55,638,520,530,450
8,2,90, LFS, Masc, Fem,75,101,101,8,9,1,0,2.729,1200,384,1130,270
8,2,91, LFS, Masc, Fem,75,31,31,6,2,1,0,2.613,921,731,830,630
8,2,92, LFS, Masc, Fem,75,41,41,6,9,1,0,2.181,1220,355,1130,270
8,2,93, LFS, Fem, Masc,75,68,68,3,6,3,0,1.75,610,559,1130,450
8,2,94, LFS, Masc, Fem,75,29,29,8,7,1,0,3.352,619,374,530,270
8,2,95, LFS, Fem, Masc,75,121,121,3,6,1,0,2.338,1218,535,1130,450
8,2,96, LFS, Masc, Fem,75,108,108,8,9,1,0,3.63,1242,364,1130,270
8,2,97, LFS, Masc, Fem,75,143,143,6,3,1,0,2.501,1200,741,1130,630
8,2,98, LFS, Masc, Fem,75,22,22,3,4,1,0,1.57,576,542,530,450
8,2,99, LFS, Fem, Masc,75,128,128,3,8,1,0,2.876,900,387,830,270
8,2,100, LFS, Fem, Masc,75,140,140,6,3,1,0,5.954,1215,728,1130,630
8,2,101, LFS, Masc, Fem,75,12,12,8,2,1,0,2.645,906,740,830,630
8,2,102, LFS, Masc, Fem,75,4,4,6,1,1,1,1.916,611,697,530,630
8,2,103, LFS, Masc, Fem,75,125,125,6,7,1,0,2.672,609,383,530,270
8,2,104, LFS, Fem, Masc,75,4,4,6,3,1,0,3.167,1210,731,1130,630
8,2,105, LFS, Fem, Masc,75,101,101,8,6,3,0,4.128,928,711,1130,450
8,2,106, LFS, Fem, Masc,75,125,125,3,6,3,0,2.891,912,356,1130,450
8,2,107, LFS, Fem, Masc,75,41,41,3,4,3,0,1.424,929,361,530,450
8,2,108, LFS, Masc, Fem,75,132,132,8,7,5,0,3.966,1254,379,530,270
8,2,109, LFS, Masc, Fem,75,140,140,3,4,1,0,4.053,630,534,530,450
8,2,110, LFS, Fem, Masc,75,104,104,8,3,4,0,3.676,916,712,1130,630
8,2,111, LFS, Masc, Fem,75,69,69,8,6,1,0,2.504,1262,561,1130,450
8,2,112, LFS, Masc, Fem,75,104,104,3,8,1,0,1.981,986,397,830,270
8,2,113, LFS, Masc, Fem,75,33,33,6,3,1,0,1.703,1184,729,1130,630
8,2,114, LFS, Masc, Fem,75,92,92,6,8,1,0,2.939,908,355,830,270
8,2,115, LFS, Masc, Fem,75,21,21,6,9,6,0,3.894,928,710,1130,270
8,2,116, LFS, Masc, Fem,75,63,63,8,4,1,0,2.321,628,569,530,450
8,2,117, LFS, Masc, Fem,75,104,104,8,4,1,0,2.053,619,542,530,450
8,2,118, LFS, Fem, Masc,75,33,33,3,6,1,0,2.516,1247,584,1130,450
8,2,119, LFS, Fem, Masc,75,22,22,6,2,1,0,2.936,922,745,830,630
8,2,120, LFS, Masc, Fem,75,123,123,8,6,2,0,3.715,655,355,1130,450
8,2,121, LFS, Fem, Masc,75,18,18,3,8,1,0,2.23,960,382,830,270
8,2,122, LFS, Fem, Masc,75,141,141,6,8,1,0,2.27,927,377,830,270
8,2,123, LFS, Fem, Masc,75,105,105,6,8,1,0,2.644,927,376,830,270
8,2,124, LFS, Masc, Fem,75,105,105,6,7,5,0,3.763,986,371,530,270
8,2,125, LFS, Masc, Fem,75,130,130,3,8,1,0,1.755,918,369,830,270
8,2,126, LFS, Fem, Masc,75,172,172,8,2,1,0,1.829,923,719,830,630
8,2,127, LFS, Fem, Masc,75,31,31,6,2,1,0,2.005,927,697,830,630
8,2,128, LFS, Fem, Masc,75,103,103,6,9,4,0,2.981,621,730,1130,270
8,2,129, LFS, Masc, Fem,75,132,132,6,9,1,0,2.749,1217,388,1130,270
8,2,130, LFS, Fem, Masc,75,132,132,6,1,1,1,3.048,644,724,530,630
8,2,131, LFS, Masc, Fem,75,29,29,3,6,1,0,2.647,1183,519,1130,450
8,2,132, LFS, Masc, Fem,75,117,117,3,6,1,0,2.085,1233,585,1130,450
8,3,133, LFS, Fem, Masc,75,21,21,8,7,1,0,2.683,593,363,530,270
8,3,134, LFS, Fem, Masc,75,117,117,6,3,1,0,2.144,1256,774,1130,630
8,3,135, LFS, Masc, Fem,75,103,103,6,9,1,0,2.196,1238,400,1130,270
8,3,136, LFS, Masc, Fem,75,33,33,8,2,1,0,2.325,946,738,830,630
8,3,137, LFS, Fem, Masc,75,138,138,8,9,1,0,4.865,1176,371,1130,270
8,3,138, LFS, Masc, Fem,75,41,41,3,6,1,0,2.335,1237,571,1130,450
8,3,139, LFS, Masc, Fem,75,108,108,6,3,1,0,1.787,1211,709,1130,630
8,3,140, LFS, Masc, Fem,75,131,131,8,1,1,1,2.46,617,716,530,630
8,3,141, LFS, Fem, Masc,75,29,29,6,3,1,0,3.075,1234,730,1130,630
8,3,142, LFS, Fem, Masc,75,130,130,6,9,1,0,2.049,1214,419,1130,270
8,3,143, LFS, Fem, Masc,75,108,108,6,2,1,0,3.079,923,726,830,630
8,3,144, LFS, Fem, Masc,75,63,63,3,6,1,0,1.869,1231,576,1130,450
8,3,145, LFS, Fem, Masc,75,143,143,8,3,1,0,3.283,1229,752,1130,630
8,3,146, LFS, Fem, Masc,75,12,12,8,6,1,0,1.656,1242,577,1130,450
